riskyGain,riskyLoss,alternative,isi,iti,loc,riskyoption1,riskyoption2,safeoption,ischecktrial,choiceP,easy0difficult1,practiceTrials.thisRepN,practiceTrials.thisTrialN,practiceTrials.thisN,practiceTrials.thisIndex,staticTrials.thisRepN,staticTrials.thisTrialN,staticTrials.thisN,staticTrials.thisIndex,BestFit.thisRepN,BestFit.thisTrialN,BestFit.thisN,BestFit.thisIndex,dynamicTrials.thisRepN,dynamicTrials.thisTrialN,dynamicTrials.thisN,dynamicTrials.thisIndex,initITIstatic,initITIdynamic,cgeRDMstartTxt.started,cgeRDMstartResp.started,cgeRDMstartResp.keys,cgeRDMstartResp.rt,pracStartTxt.started,pracStartResp.started,pracStartResp.keys,pracStartResp.rt,pracCircLeft.started,pracCircRight.started,pracRiskLine.started,pracORtxt.started,pracLossTxt.started,pracGainTxt.started,pracSafeTxt.started,pracVleft.started,pracNright.started,pracChoiceResp.started,pracChoiceResp.keys,pracChoiceResp.rt,isiPracFix.started,isiPracFix.stopped,pracNoRespTxt.started,pracRiskOC.started,pracSafeOC.started,pracOCtxt.started,pracHideRisk.started,outcome,itiPracFix.started,itiPracFix.stopped,statStartTxt.started,statStartResp.started,statStartResp.keys,statStartResp.rt,realCircLeft.started,realCircRight.started,realRiskLine.started,realORtxt.started,realLossTxt.started,realGainTxt.started,realSafeTxt.started,realVleft.started,realNright.started,realChoiceResp.started,loc,realChoiceResp.keys,realChoiceResp.rt,isiRealFix.started,statNoRespTxt.started,statRiskOC.started,statSafeOC.started,statOCtxt.started,statHideRisk.started,outcomes,choices,itiRealFix.started,itiRealFix.stopped,dynamicChoiceSet.routineStartVal,setupBestFitTxt.started,setupBestFitTxt.stopped,dynamicChoiceSet.routineEndVal,bestRho.routineEndVal,bestMu.routineEndVal,loadDynaChoicesTxt.started,dynaStartTxt.started,dynaStartResp.started,dynaStartResp.keys,dynaStartResp.rt,dynaNoRespTxt.started,dynaRiskOC.started,dynaSafeOC.started,dynaOCtxt.started,dynaHideRisk.started,cgeRDMendTxt.started,cgeRDMendResp.started,cgeRDMendResp.keys,cgeRDMendResp.rt,ThankYou.started,participant,date,expName,psychopyVersion,frameRate,
,,,,,,,,,,,,,,,,,,,,,,,,,,,,"[3.5, 3.5, 3, 3, 3, 3, 3.5, 3.5, 3.5, 3, 3, 3.5, 3.5, 3.5, 3.5, 3.5, 3, 3, 3.5, 3, 3.5, 3, 3.5, 3.5, 3, 3.5, 3, 3, 3.5, 3.5, 3, 3.5, 3, 3, 3, 3, 3, 3, 3.5, 3, 3, 3.5, 3.5, 3, 3.5, 3, 3, 3.5, 3.5, 3.5]","[3, 3, 3, 3.5, 3, 3, 3.5, 3, 3, 3.5, 3, 3.5, 3.5, 3, 3, 3.5, 3, 3.5, 3, 3.5, 3.5, 3, 3, 3.5, 3, 3.5, 3.5, 3.5, 3, 3.5, 3, 3.5, 3.5, 3.5, 3, 3, 3, 3, 3, 3, 3, 3, 3, 3.5, 3, 3, 3, 3.5, 3, 3.5, 3.5, 3.5, 3.5, 3.5, 3, 3.5, 3, 3.5, 3, 3.5, 3.5, 3, 3, 3, 3, 3, 3.5, 3.5, 3, 3.5, 3.5, 3.5, 3.5, 3, 3, 3.5, 3, 3.5, 3.5, 3.5, 3, 3.5, 3.5, 3, 3.5, 3.5, 3.5, 3.5, 3, 3, 3.5, 3, 3.5, 3.5, 3, 3, 3.5, 3.5, 3, 3, 3, 3.5, 3.5, 3.5, 3, 3, 3, 3.5, 3.5, 3.5, 3.5, 3.5, 3, 3.5, 3, 3, 3.5, 3.5, 3, 3]",14.007163799999034,16.01424379999844,return,0.25630630000159726,,,,,,,,,,,,,,,,,,,,,,,,,,,,,,,,,,,,,,,,,,,,,,,,,,,,,,,,,,,,,,,,,,,,,,,,,,,999,2023-09-30_15h06.54.611,cgeRDMtask,2022.2.4,60.09239807155528,
,,,,,,,,,,,,,,,,,,,,,,,,,,,,,,,,,,16.29702719999841,18.29395409999961,v,0.5846463000016229,,,,,,,,,,,,,,,,,,,,,,,,,,,,,,,,,,,,,,,,,,,,,,,,,,,,,,,,,,,,,,,,,,,,,,,999,2023-09-30_15h06.54.611,cgeRDMtask,2022.2.4,60.09239807155528,
18.23,0,9.45,1,3,1,,,,,,,0,0,0,0,,,,,,,,,,,,,,,,,,,,,,,18.920176299998275,18.920176299998275,18.920176299998275,18.920176299998275,18.920176299998275,18.920176299998275,18.920176299998275,18.920176299998275,18.920176299998275,18.920176299998275,v,1.206033500000558,20.157733499998358,21.173140999999305,21.173140999999305,21.173140999999305,21.173140999999305,21.173140999999305,21.173140999999305,18.23,22.188042399999176,25.20046799999909,,,,,,,,,,,,,,,1,,,,,,,,,,,,,,,,,,,,,,,,,,,,,,,,,,999,2023-09-30_15h06.54.611,cgeRDMtask,2022.2.4,60.09239807155528,
53.27,0,35.16,1,3.5,1,,,,,,,0,1,1,1,,,,,,,,,,,,,,,,,,,,,,,25.20046799999909,25.20046799999909,25.20046799999909,25.20046799999909,25.20046799999909,25.20046799999909,25.20046799999909,25.20046799999909,25.20046799999909,25.20046799999909,v,0.9182531000024028,26.148713699998552,27.16409389999899,27.16409389999899,27.16409389999899,27.16409389999899,27.16409389999899,27.16409389999899,53.27,28.179130199998326,31.690610199999355,,,,,,,,,,,,,,,1,,,,,,,,,,,,,,,,,,,,,,,,,,,,,,,,,,999,2023-09-30_15h06.54.611,cgeRDMtask,2022.2.4,60.09239807155528,
8.27,0,1.15,1,3,2,,,,,,,0,2,2,2,,,,,,,,,,,,,,,,,,,,,,,31.690610199999355,31.690610199999355,31.690610199999355,31.690610199999355,31.690610199999355,31.690610199999355,31.690610199999355,31.690610199999355,31.690610199999355,31.690610199999355,n,1.139388500001587,32.85523219999959,33.87055449999934,33.87055449999934,33.87055449999934,33.87055449999934,33.87055449999934,33.87055449999934,8.27,34.885520999998334,37.89793599999939,,,,,,,,,,,,,,,2,,,,,,,,,,,,,,,,,,,,,,,,,,,,,,,,,,999,2023-09-30_15h06.54.611,cgeRDMtask,2022.2.4,60.09239807155528,
45.88,0,40.41,1,3.5,1,,,,,,,0,3,3,3,,,,,,,,,,,,,,,,,,,,,,,37.89793599999939,37.89793599999939,37.89793599999939,37.89793599999939,37.89793599999939,37.89793599999939,37.89793599999939,37.89793599999939,37.89793599999939,37.89793599999939,n,0.7236613000004581,38.646555699999226,39.661853799998426,39.661853799998426,39.661853799998426,39.661853799998426,39.661853799998426,39.661853799998426,40.41,40.67681079999966,44.18840009999985,,,,,,,,,,,,,,,1,,,,,,,,,,,,,,,,,,,,,,,,,,,,,,,,,,999,2023-09-30_15h06.54.611,cgeRDMtask,2022.2.4,60.09239807155528,
,,,,,,,,,,,,,,,,,,,,,,,,,,,,,,,,,,,,,,,,,,,,,,,,,,,,,,,,,,,,44.18840009999985,44.18840009999985,v,0.8892583000015293,,,,,,,,,,,,,,,,,,,,,,,,,,,,,,,,,,,,,,,,,,,,,999,2023-09-30_15h06.54.611,cgeRDMtask,2022.2.4,60.09239807155528,
,,,,,2,17.73,0.0,3.13,0,,,,,,,0,0,0,2,,,,,,,,,,,,,,,,,,,,,,,,,,,,,,,,,,,,,,,,,,,,,45.105540599999586,45.105540599999586,45.105540599999586,45.105540599999586,45.105540599999586,45.105540599999586,45.105540599999586,45.105540599999586,45.105540599999586,45.105540599999586,2,n,1.7961660000019037,46.934037799999714,47.949411299998246,47.949411299998246,47.949411299998246,47.949411299998246,47.949411299998246,0.0,1,48.947732099999484,52.459512299999915,,,,,,,,,,,,,,,,,,,,,,999,2023-09-30_15h06.54.611,cgeRDMtask,2022.2.4,60.09239807155528,
,,,,,2,28.21,0.0,3.89,0,,,,,,,0,1,1,1,,,,,,,,,,,,,,,,,,,,,,,,,,,,,,,,,,,,,,,,,,,,,52.459512299999915,52.459512299999915,52.459512299999915,52.459512299999915,52.459512299999915,52.459512299999915,52.459512299999915,52.459512299999915,52.459512299999915,52.459512299999915,2,v,0.7709177000015188,53.2579139999998,54.27311129999907,54.27311129999907,54.27311129999907,54.27311129999907,54.27311129999907,3.89,0,55.271470699999554,58.783247099998334,,,,,,,,,,,,,,,,,,,,,,999,2023-09-30_15h06.54.611,cgeRDMtask,2022.2.4,60.09239807155528,
,,,,,1,20.03,0.0,1.99,0,,,,,,,0,2,2,0,,,,,,,,,,,,,,,,,,,,,,,,,,,,,,,,,,,,,,,,,,,,,58.783247099998334,58.783247099998334,58.783247099998334,58.783247099998334,58.783247099998334,58.783247099998334,58.783247099998334,58.783247099998334,58.783247099998334,58.783247099998334,1,n,1.7116370000021561,60.513577099998656,61.528771099998266,61.528771099998266,61.528771099998266,61.528771099998266,61.528771099998266,1.99,0,62.52711959999942,65.53957809999883,,,,,,,,,,,,,,,,,,,,,,999,2023-09-30_15h06.54.611,cgeRDMtask,2022.2.4,60.09239807155528,
,,,,,1,25.2,0.0,5.4,0,,,,,,,0,3,3,3,,,,,,,,,,,,,,,,,,,,,,,,,,,,,,,,,,,,,,,,,,,,,65.53957809999883,65.53957809999883,65.53957809999883,65.53957809999883,65.53957809999883,65.53957809999883,65.53957809999883,65.53957809999883,65.53957809999883,65.53957809999883,1,v,0.5867159000008542,66.15486949999831,67.17056259999845,67.17056259999845,67.17056259999845,67.17056259999845,67.17056259999845,25.2,1,68.16870759999983,71.55947129999913,,,,,,,,,,,,,,,,,,,,,,999,2023-09-30_15h06.54.611,cgeRDMtask,2022.2.4,60.09239807155528,
,,,,,,,,,,,,,,,,,,,,0,0,0,0,,,,,,,,,,,,,,,,,,,,,,,,,,,,,,,,,,,,,,,,,,,,,,,,,,,,,,,,,,,,,,,,../CGE/bespoke_choicesets/bespoke_choiceset_rhoInd006_muInd001.csv,71.55947129999913,75.57412839999961,../CGE/bespoke_choicesets/bespoke_choiceset_rhoInd006_muInd001.csv,6,1,,,,,,,,,,,,,,,,999,2023-09-30_15h06.54.611,cgeRDMtask,2022.2.4,60.09239807155528,
,,,,,,,,,,,,,,,,,,,,,,,,,,,,,,,,,,,,,,,,,,,,,,,,,,,,,,,,,,,,,,,,,,,,,,,,,,,,,,,,,,,,,,,,,,,,,75.57412839999961,77.5878335999987,77.5878335999987,n,0.9057379000023502,,,,,,,,,,,999,2023-09-30_15h06.54.611,cgeRDMtask,2022.2.4,60.09239807155528,
,,,,,1,9.70704405462602,0,8.36433683884097,,0.0412162131687053,0,,,,,,,,,,,,,0,0,0,3,,,,,,,,,,,,,,,,,,,,,,,,,,,,,,,,,,,,,78.52953979999984,78.52953979999984,78.52953979999984,78.52953979999984,78.52953979999984,78.52953979999984,78.52953979999984,78.52953979999984,78.52953979999984,78.52953979999984,1,v,0.9802636000003986,79.53485919999912,,,,,,0,1,81.54844879999837,84.56088209999871,,,,,,,,,,,,80.5504148,80.5504148,80.5504148,80.5504148,80.5504148,,,,,,999,2023-09-30_15h06.54.611,cgeRDMtask,2022.2.4,60.09239807155528,
,,,,,2,16.1462728444254,0,0.0704118405235931,,0.920010181340601,0,,,,,,,,,,,,,0,1,1,1,,,,,,,,,,,,,,,,,,,,,,,,,,,,,,,,,,,,,84.56088209999871,84.56088209999871,84.56088209999871,84.56088209999871,84.56088209999871,84.56088209999871,84.56088209999871,84.56088209999871,84.56088209999871,84.56088209999871,2,n,0.8607489000005444,85.44285239999954,,,,,,16.1462728444254,1,87.45622289999847,90.46897509999872,,,,,,,,,,,,86.45794409999871,86.45794409999871,86.45794409999871,86.45794409999871,86.45794409999871,,,,,,999,2023-09-30_15h06.54.611,cgeRDMtask,2022.2.4,60.09239807155528,
,,,,,1,7.70918463018024,0,0.893740662466735,,0.547627124284566,1,,,,,,,,,,,,,0,2,2,2,,,,,,,,,,,,,,,,,,,,,,,,,,,,,,,,,,,,,90.46897509999872,90.46897509999872,90.46897509999872,90.46897509999872,90.46897509999872,90.46897509999872,90.46897509999872,90.46897509999872,90.46897509999872,90.46897509999872,1,v,1.9453724000013608,92.4320921999988,,,,,,7.70918463018024,1,94.44573329999912,97.4581204999995,,,,,,,,,,,,93.44750909999857,93.44750909999857,93.44750909999857,93.44750909999857,93.44750909999857,,,,,,999,2023-09-30_15h06.54.611,cgeRDMtask,2022.2.4,60.09239807155528,
,,,,,1,7.13873340317514,0,6.56638197537977,,0.0355884113408131,0,,,,,,,,,,,,,0,3,3,0,,,,,,,,,,,,,,,,,,,,,,,,,,,,,,,,,,,,,97.4581204999995,97.4581204999995,97.4581204999995,97.4581204999995,97.4581204999995,97.4581204999995,97.4581204999995,97.4581204999995,97.4581204999995,97.4581204999995,1,n,0.5793894000016735,98.05703229999926,,,,,,6.56638197537977,0,100.07052559999829,103.58214839999891,,,,,,,,,,,,99.07218799999828,99.07218799999828,99.07218799999828,99.07218799999828,99.07218799999828,,,,,,999,2023-09-30_15h06.54.611,cgeRDMtask,2022.2.4,60.09239807155528,
,,,,,,,,,,,,,,,,,,,,,,,,,,,,,,,,,,,,,,,,,,,,,,,,,,,,,,,,,,,,,,,,,,,,,,,,,,,,,,,,,,,,,,,,,,,,,,,,,,,,,,,103.58214839999891,103.58214839999891,return,2.3606275000001915,,999,2023-09-30_15h06.54.611,cgeRDMtask,2022.2.4,60.09239807155528,
,,,,,,,,,,,,,,,,,,,,,,,,,,,,,,,,,,,,,,,,,,,,,,,,,,,,,,,,,,,,,,,,,,,,,,,,,,,,,,,,,,,,,,,,,,,,,,,,,,,,,,,,,,,105.96177139999963,,,,,,
