riskyGain,riskyLoss,alternative,isi,iti,loc,riskyoption1,riskyoption2,safeoption,ischecktrial,practiceTrials.thisRepN,practiceTrials.thisTrialN,practiceTrials.thisN,practiceTrials.thisIndex,staticTrials.thisRepN,staticTrials.thisTrialN,staticTrials.thisN,staticTrials.thisIndex,BestFit.thisRepN,BestFit.thisTrialN,BestFit.thisN,BestFit.thisIndex,dynamicTrials.thisRepN,dynamicTrials.thisTrialN,dynamicTrials.thisN,dynamicTrials.thisIndex,choiceP,easy0difficult1,initITIstatic,initITIdynamic,cgeRDMstartTxt.started,cgeRDMstartResp.started,cgeRDMstartResp.keys,cgeRDMstartResp.rt,pracStartTxt.started,pracStartResp.started,pracStartResp.keys,pracStartResp.rt,pracCircLeft.started,pracCircRight.started,pracRiskLine.started,pracORtxt.started,pracLossTxt.started,pracGainTxt.started,pracSafeTxt.started,pracVleft.started,pracNright.started,pracChoiceResp.started,pracChoiceResp.keys,pracChoiceResp.rt,isiPracFix.started,isiPracFix.stopped,pracNoRespTxt.started,pracRiskOC.started,pracSafeOC.started,pracOCtxt.started,pracHideRisk.started,outcome,itiPracFix.started,itiPracFix.stopped,statStartTxt.started,statStartResp.started,statStartResp.keys,statStartResp.rt,realCircLeft.started,realCircRight.started,realRiskLine.started,realORtxt.started,realLossTxt.started,realGainTxt.started,realSafeTxt.started,realVleft.started,realNright.started,realChoiceResp.started,loc,realChoiceResp.keys,realChoiceResp.rt,isiRealFix.started,statNoRespTxt.started,statRiskOC.started,statSafeOC.started,statOCtxt.started,statHideRisk.started,outcomes,choices,itiRealFix.started,itiRealFix.stopped,isiRealFix.stopped,dynamicChoiceSet.routineStartVal,setupBestFitTxt.started,setupBestFitTxt.stopped,dynamicChoiceSet.routineEndVal,bestRho.routineEndVal,bestMu.routineEndVal,loadDynaChoicesTxt.started,dynaStartTxt.started,dynaStartResp.started,dynaStartResp.keys,dynaStartResp.rt,participant,date,expName,psychopyVersion,frameRate,
,,,,,,,,,,,,,,,,,,,,,,,,,,,,"[3.5, 3.5, 3, 3, 3.5, 3.5, 3, 3, 3, 3, 3, 3, 3, 3.5, 3, 3.5, 3.5, 3.5, 3, 3.5, 3.5, 3, 3.5, 3.5, 3.5, 3, 3, 3, 3.5, 3.5, 3, 3.5, 3, 3, 3, 3, 3.5, 3, 3.5, 3, 3.5, 3.5, 3.5, 3, 3, 3.5, 3.5, 3.5, 3, 3.5]","[3.5, 3.5, 3.5, 3, 3, 3.5, 3.5, 3, 3.5, 3, 3, 3.5, 3.5, 3.5, 3, 3, 3, 3.5, 3.5, 3.5, 3, 3.5, 3, 3.5, 3.5, 3.5, 3, 3, 3.5, 3, 3.5, 3, 3.5, 3, 3, 3, 3.5, 3, 3, 3.5, 3.5, 3.5, 3, 3.5, 3.5, 3, 3.5, 3.5, 3, 3, 3.5, 3.5, 3.5, 3, 3.5, 3.5, 3.5, 3, 3, 3.5, 3, 3, 3, 3.5, 3.5, 3, 3, 3.5, 3.5, 3, 3, 3, 3.5, 3, 3, 3.5, 3, 3.5, 3.5, 3, 3, 3.5, 3, 3.5, 3, 3, 3, 3.5, 3, 3, 3, 3.5, 3.5, 3, 3, 3, 3, 3, 3, 3, 3.5, 3, 3.5, 3.5, 3.5, 3.5, 3.5, 3.5, 3, 3, 3.5, 3.5, 3, 3.5, 3.5, 3, 3.5, 3, 3.5, 3]",132.17702119999922,134.17008239999996,return,0.17422420000002603,,,,,,,,,,,,,,,,,,,,,,,,,,,,,,,,,,,,,,,,,,,,,,,,,,,,,,,,,,,,,,,,,,999,2023-09-30_15h24.48.170,cgeRDMtask,2022.2.4,60.09120643287031,
,,,,,,,,,,,,,,,,,,,,,,,,,,,,,,,,,,134.36968539999907,136.36667619999935,v,0.29756950000046345,,,,,,,,,,,,,,,,,,,,,,,,,,,,,,,,,,,,,,,,,,,,,,,,,,,,,,,,,,,,,,999,2023-09-30_15h24.48.170,cgeRDMtask,2022.2.4,60.09120643287031,
18.23,0,9.45,1,3,1,,,,,0,0,0,0,,,,,,,,,,,,,,,,,,,,,,,,,136.6935816999994,136.6935816999994,136.6935816999994,136.6935816999994,136.6935816999994,136.6935816999994,136.6935816999994,136.6935816999994,136.6935816999994,136.6935816999994,v,1.122708100001546,137.84766799999852,138.86308049999934,138.86308049999934,138.86308049999934,138.86308049999934,138.86308049999934,138.86308049999934,0,139.8781719999988,142.8903440999984,,,,,,,,,,,,,,,1,,,,,,,,,,,,,,,,,,,,,,,,,999,2023-09-30_15h24.48.170,cgeRDMtask,2022.2.4,60.09120643287031,
53.27,0,35.16,1,3.5,1,,,,,0,1,1,1,,,,,,,,,,,,,,,,,,,,,,,,,142.8903440999984,142.8903440999984,142.8903440999984,142.8903440999984,142.8903440999984,142.8903440999984,142.8903440999984,142.8903440999984,142.8903440999984,142.8903440999984,v,0.8617972000010923,143.77205999999933,144.78747320000002,144.78747320000002,144.78747320000002,144.78747320000002,144.78747320000002,144.78747320000002,0,145.80244779999884,149.31404779999866,,,,,,,,,,,,,,,1,,,,,,,,,,,,,,,,,,,,,,,,,999,2023-09-30_15h24.48.170,cgeRDMtask,2022.2.4,60.09120643287031,
8.27,0,1.15,1,3,2,,,,,0,2,2,2,,,,,,,,,,,,,,,,,,,,,,,,,149.31404779999866,149.31404779999866,149.31404779999866,149.31404779999866,149.31404779999866,149.31404779999866,149.31404779999866,149.31404779999866,149.31404779999866,149.31404779999866,n,0.5661616000015783,149.91289909999978,150.9283719999985,150.9283719999985,150.9283719999985,150.9283719999985,150.9283719999985,150.9283719999985,8.27,151.94306529999994,154.95560839999962,,,,,,,,,,,,,,,2,,,,,,,,,,,,,,,,,,,,,,,,,999,2023-09-30_15h24.48.170,cgeRDMtask,2022.2.4,60.09120643287031,
45.88,0,40.41,1,3.5,1,,,,,0,3,3,3,,,,,,,,,,,,,,,,,,,,,,,,,154.95560839999962,154.95560839999962,154.95560839999962,154.95560839999962,154.95560839999962,154.95560839999962,154.95560839999962,154.95560839999962,154.95560839999962,154.95560839999962,v,0.8683943000014551,155.85391009999876,156.86941259999912,156.86941259999912,156.86941259999912,156.86941259999912,156.86941259999912,156.86941259999912,0,157.8840984999988,161.39573219999875,,,,,,,,,,,,,,,1,,,,,,,,,,,,,,,,,,,,,,,,,999,2023-09-30_15h24.48.170,cgeRDMtask,2022.2.4,60.09120643287031,
21.56,0,11.96,1,3,2,,,,,0,4,4,4,,,,,,,,,,,,,,,,,,,,,,,,,161.39573219999875,161.39573219999875,161.39573219999875,161.39573219999875,161.39573219999875,161.39573219999875,161.39573219999875,161.39573219999875,161.39573219999875,161.39573219999875,n,0.5810887000006915,161.99456549999923,163.00991949999843,163.00991949999843,163.00991949999843,163.00991949999843,163.00991949999843,163.00991949999843,0,164.0248423999983,167.03699639999832,,,,,,,,,,,,,,,2,,,,,,,,,,,,,,,,,,,,,,,,,999,2023-09-30_15h24.48.170,cgeRDMtask,2022.2.4,60.09120643287031,
,,,,,,,,,,,,,,,,,,,,,,,,,,,,,,,,,,,,,,,,,,,,,,,,,,,,,,,,,,,,167.03699639999832,167.03699639999832,v,1.5233643000010488,,,,,,,,,,,,,,,,,,,,,,,,,,,,,,,,,,,,999,2023-09-30_15h24.48.170,cgeRDMtask,2022.2.4,60.09120643287031,
,,,,,2,13.94,0.0,5.03,0,,,,,0,0,0,8,,,,,,,,,,,,,,,,,,,,,,,,,,,,,,,,,,,,,,,,,,,,,,,168.58707739999954,168.58707739999954,168.58707739999954,168.58707739999954,168.58707739999954,168.58707739999954,168.58707739999954,168.58707739999954,168.58707739999954,168.58707739999954,2,v,1.2129551000016363,169.81608999999844,170.8315752999988,170.8315752999988,170.8315752999988,170.8315752999988,170.8315752999988,5.03,0,171.8301647999997,175.34142989999964,,,,,,,,,,,,,999,2023-09-30_15h24.48.170,cgeRDMtask,2022.2.4,60.09120643287031,
,,,,,2,16.11,6.99,6.99,1,,,,,0,1,1,43,,,,,,,,,,,,,,,,,,,,,,,,,,,,,,,,,,,,,,,,,,,,,,,175.34142989999964,175.34142989999964,175.34142989999964,175.34142989999964,175.34142989999964,175.34142989999964,175.34142989999964,175.34142989999964,175.34142989999964,175.34142989999964,2,n,0.4350248000009742,175.80709119999847,176.82238049999978,176.82238049999978,176.82238049999978,176.82238049999978,176.82238049999978,6.99,1,177.82046309999896,181.3324423999984,,,,,,,,,,,,,999,2023-09-30_15h24.48.170,cgeRDMtask,2022.2.4,60.09120643287031,
,,,,,1,17.0,0.0,9.5,0,,,,,0,2,2,25,,,,,,,,,,,,,,,,,,,,,,,,,,,,,,,,,,,,,,,,,,,,,,,181.3324423999984,181.3324423999984,181.3324423999984,181.3324423999984,181.3324423999984,181.3324423999984,181.3324423999984,181.3324423999984,181.3324423999984,181.3324423999984,1,v,0.7159424000019499,182.08094419999907,183.09639079999943,183.09639079999943,183.09639079999943,183.09639079999943,183.09639079999943,0.0,1,184.09456709999904,187.10701840000002,,,,,,,,,,,,,999,2023-09-30_15h24.48.170,cgeRDMtask,2022.2.4,60.09120643287031,
,,,,,2,13.45,0.0,5.27,0,,,,,0,3,3,10,,,,,,,,,,,,,,,,,,,,,,,,,,,,,,,,,,,,,,,,,,,,,,,187.10701840000002,187.10701840000002,187.10701840000002,187.10701840000002,187.10701840000002,187.10701840000002,187.10701840000002,187.10701840000002,187.10701840000002,187.10701840000002,2,n,0.5569755000014993,187.68922419999944,188.70451069999945,188.70451069999945,188.70451069999945,188.70451069999945,188.70451069999945,13.45,1,189.70279759999903,192.71523089999937,,,,,,,,,,,,,999,2023-09-30_15h24.48.170,cgeRDMtask,2022.2.4,60.09120643287031,
,,,,,1,11.2,0.0,6.4,0,,,,,0,4,4,26,,,,,,,,,,,,,,,,,,,,,,,,,,,,,,,,,,,,,,,,,,,,,,,192.71523089999937,192.71523089999937,192.71523089999937,192.71523089999937,192.71523089999937,192.71523089999937,192.71523089999937,192.71523089999937,192.71523089999937,192.71523089999937,1,v,0.637188700000479,193.38059809999868,194.39602829999967,194.39602829999967,194.39602829999967,194.39602829999967,194.39602829999967,11.2,1,195.39420399999835,198.90592449999895,,,,,,,,,,,,,999,2023-09-30_15h24.48.170,cgeRDMtask,2022.2.4,60.09120643287031,
,,,,,1,14.26,0.0,0.0,1,,,,,0,5,5,41,,,,,,,,,,,,,,,,,,,,,,,,,,,,,,,,,,,,,,,,,,,,,,,198.90592449999895,198.90592449999895,198.90592449999895,198.90592449999895,198.90592449999895,198.90592449999895,198.90592449999895,198.90592449999895,198.90592449999895,198.90592449999895,1,n,0.4943739000009373,199.42148069999894,200.4367689999999,200.4367689999999,200.4367689999999,200.4367689999999,200.4367689999999,0.0,0,201.43508629999997,204.9468115999989,,,,,,,,,,,,,999,2023-09-30_15h24.48.170,cgeRDMtask,2022.2.4,60.09120643287031,
,,,,,1,0.0,0.0,3.13,1,,,,,0,6,6,47,,,,,,,,,,,,,,,,,,,,,,,,,,,,,,,,,,,,,,,,,,,,,,,204.9468115999989,204.9468115999989,204.9468115999989,204.9468115999989,204.9468115999989,204.9468115999989,204.9468115999989,204.9468115999989,204.9468115999989,204.9468115999989,1,v,0.477524000001722,205.4457198,206.4611172999994,206.4611172999994,206.4611172999994,206.4611172999994,206.4611172999994,0.0,1,207.45937029999914,210.47178039999926,,,,,,,,,,,,,999,2023-09-30_15h24.48.170,cgeRDMtask,2022.2.4,60.09120643287031,
,,,,,2,17.28,0.0,9.36,0,,,,,0,7,7,23,,,,,,,,,,,,,,,,,,,,,,,,,,,,,,,,,,,,,,,,,,,,,,,210.47178039999926,210.47178039999926,210.47178039999926,210.47178039999926,210.47178039999926,210.47178039999926,210.47178039999926,210.47178039999926,210.47178039999926,210.47178039999926,2,n,0.37648990000161575,210.87084819999836,211.8866872999988,211.8866872999988,211.8866872999988,211.8866872999988,211.8866872999988,17.28,1,212.8845061999982,215.89711429999988,,,,,,,,,,,,,999,2023-09-30_15h24.48.170,cgeRDMtask,2022.2.4,60.09120643287031,
,,,,,2,20.53,0.0,7.73,0,,,,,0,8,8,9,,,,,,,,,,,,,,,,,,,,,,,,,,,,,,,,,,,,,,,,,,,,,,,215.89711429999988,215.89711429999988,215.89711429999988,215.89711429999988,215.89711429999988,215.89711429999988,215.89711429999988,215.89711429999988,215.89711429999988,215.89711429999988,2,v,0.40733349999936763,216.3292748999993,217.34468259999994,217.34468259999994,217.34468259999994,217.34468259999994,217.34468259999994,7.73,0,218.34311199999865,221.3553396999996,,,,,,,,,,,,,999,2023-09-30_15h24.48.170,cgeRDMtask,2022.2.4,60.09120643287031,
,,,,,1,10.95,0.0,6.53,0,,,,,0,9,9,28,,,,,,,,,,,,,,,,,,,,,,,,,,,,,,,,,,,,,,,,,,,,,,,221.3553396999996,221.3553396999996,221.3553396999996,221.3553396999996,221.3553396999996,221.3553396999996,221.3553396999996,221.3553396999996,221.3553396999996,221.3553396999996,1,n,0.48526400000082504,221.87093469999854,222.8862412999988,222.8862412999988,222.8862412999988,222.8862412999988,222.8862412999988,6.53,0,223.88453459999982,226.8969692999999,,,,,,,,,,,,,999,2023-09-30_15h24.48.170,cgeRDMtask,2022.2.4,60.09120643287031,
,,,,,2,15.47,0.0,10.27,0,,,,,0,10,10,35,,,,,,,,,,,,,,,,,,,,,,,,,,,,,,,,,,,,,,,,,,,,,,,226.8969692999999,226.8969692999999,226.8969692999999,226.8969692999999,226.8969692999999,226.8969692999999,226.8969692999999,226.8969692999999,226.8969692999999,226.8969692999999,2,v,0.4872888999998395,227.41253609999876,228.42787269999826,228.42787269999826,228.42787269999826,228.42787269999826,228.42787269999826,10.27,0,229.42617849999988,232.4386418999984,,,,,,,,,,,,,999,2023-09-30_15h24.48.170,cgeRDMtask,2022.2.4,60.09120643287031,
,,,,,2,10.68,0.0,10.68,1,,,,,0,11,11,48,,,,,,,,,,,,,,,,,,,,,,,,,,,,,,,,,,,,,,,,,,,,,,,232.4386418999984,232.4386418999984,232.4386418999984,232.4386418999984,232.4386418999984,232.4386418999984,232.4386418999984,232.4386418999984,232.4386418999984,232.4386418999984,2,n,0.4580617000010534,232.92096189999938,233.93629669999973,233.93629669999973,233.93629669999973,233.93629669999973,233.93629669999973,0.0,1,234.93453669999872,237.9469823999989,,,,,,,,,,,,,999,2023-09-30_15h24.48.170,cgeRDMtask,2022.2.4,60.09120643287031,
,,,,,1,11.84,0.0,6.08,0,,,,,0,12,12,20,,,,,,,,,,,,,,,,,,,,,,,,,,,,,,,,,,,,,,,,,,,,,,,237.9469823999989,237.9469823999989,237.9469823999989,237.9469823999989,237.9469823999989,237.9469823999989,237.9469823999989,237.9469823999989,237.9469823999989,237.9469823999989,1,v,0.3812351000015042,238.34615559999838,239.36155139999937,239.36155139999937,239.36155139999937,239.36155139999937,239.36155139999937,0.0,1,240.3597278999987,243.3721689999984,,,,,,,,,,,,,999,2023-09-30_15h24.48.170,cgeRDMtask,2022.2.4,60.09120643287031,
,,,,,2,20.03,0.0,1.99,0,,,,,0,13,13,0,,,,,,,,,,,,,,,,,,,,,,,,,,,,,,,,,,,,,,,,,,,,,,,243.3721689999984,243.3721689999984,243.3721689999984,243.3721689999984,243.3721689999984,243.3721689999984,243.3721689999984,243.3721689999984,243.3721689999984,243.3721689999984,2,n,0.8362534000007145,244.23717279999983,245.25257059999967,245.25257059999967,245.25257059999967,245.25257059999967,245.25257059999967,20.03,1,246.25081659999887,249.762514,,,,,,,,,,,,,999,2023-09-30_15h24.48.170,cgeRDMtask,2022.2.4,60.09120643287031,
,,,,,2,10.24,0.0,6.88,0,,,,,0,14,14,36,,,,,,,,,,,,,,,,,,,,,,,,,,,,,,,,,,,,,,,,,,,,,,,249.762514,249.762514,249.762514,249.762514,249.762514,249.762514,249.762514,249.762514,249.762514,249.762514,2,v,0.35754090000045835,250.14498359999925,251.16042299999935,251.16042299999935,251.16042299999935,251.16042299999935,251.16042299999935,6.88,0,252.15879309999946,255.17109919999893,,,,,,,,,,,,,999,2023-09-30_15h24.48.170,cgeRDMtask,2022.2.4,60.09120643287031,
,,,,,1,25.2,0.0,5.4,0,,,,,0,15,15,3,,,,,,,,,,,,,,,,,,,,,,,,,,,,,,,,,,,,,,,,,,,,,,,255.17109919999893,255.17109919999893,255.17109919999893,255.17109919999893,255.17109919999893,255.17109919999893,255.17109919999893,255.17109919999893,255.17109919999893,255.17109919999893,1,n,0.44544390000010026,255.63674509999873,256.65196299999843,256.65196299999843,256.65196299999843,256.65196299999843,256.65196299999843,5.4,0,257.6503352999989,261.1620759999987,,,,,,,,,,,,,999,2023-09-30_15h24.48.170,cgeRDMtask,2022.2.4,60.09120643287031,
,,,,,1,10.55,0.0,6.73,0,,,,,0,16,16,32,,,,,,,,,,,,,,,,,,,,,,,,,,,,,,,,,,,,,,,,,,,,,,,261.1620759999987,261.1620759999987,261.1620759999987,261.1620759999987,261.1620759999987,261.1620759999987,261.1620759999987,261.1620759999987,261.1620759999987,261.1620759999987,1,v,0.590051900000617,261.7774303999995,262.79291589999957,262.79291589999957,262.79291589999957,262.79291589999957,262.79291589999957,10.55,1,263.7910230999987,267.30283639999834,,,,,,,,,,,,,999,2023-09-30_15h24.48.170,cgeRDMtask,2022.2.4,60.09120643287031,
,,,,,2,28.21,0.0,3.89,0,,,,,0,17,17,1,,,,,,,,,,,,,,,,,,,,,,,,,,,,,,,,,,,,,,,,,,,,,,,267.30283639999834,267.30283639999834,267.30283639999834,267.30283639999834,267.30283639999834,267.30283639999834,267.30283639999834,267.30283639999834,267.30283639999834,267.30283639999834,2,n,0.4343064000004233,267.7683976999997,268.783669299999,268.783669299999,268.783669299999,268.783669299999,268.783669299999,0.0,1,269.7820161999989,273.29368689999865,,,,,,,,,,,,,999,2023-09-30_15h24.48.170,cgeRDMtask,2022.2.4,60.09120643287031,
,,,,,1,16.0,0.0,4.0,0,,,,,0,18,18,4,,,,,,,,,,,,,,,,,,,,,,,,,,,,,,,,,,,,,,,,,,,,,,,273.29368689999865,273.29368689999865,273.29368689999865,273.29368689999865,273.29368689999865,273.29368689999865,273.29368689999865,273.29368689999865,273.29368689999865,273.29368689999865,1,v,0.4344362000010733,273.7593494999983,274.7747905999986,274.7747905999986,274.7747905999986,274.7747905999986,274.7747905999986,16.0,1,275.77304699999877,278.785507999999,,,,,,,,,,,,,999,2023-09-30_15h24.48.170,cgeRDMtask,2022.2.4,60.09120643287031,
,,,,,1,10.39,0.0,6.81,0,,,,,0,19,19,34,,,,,,,,,,,,,,,,,,,,,,,,,,,,,,,,,,,,,,,,,,,,,,,278.785507999999,278.785507999999,278.785507999999,278.785507999999,278.785507999999,278.785507999999,278.785507999999,278.785507999999,278.785507999999,278.785507999999,1,n,0.36758560000089346,279.18447919999926,280.19987669999864,280.19987669999864,280.19987669999864,280.19987669999864,280.19987669999864,6.81,0,281.1980631999995,284.70993519999865,,,,,,,,,,,,,999,2023-09-30_15h24.48.170,cgeRDMtask,2022.2.4,60.09120643287031,
,,,,,1,12.68,0.0,5.66,0,,,,,0,20,20,14,,,,,,,,,,,,,,,,,,,,,,,,,,,,,,,,,,,,,,,,,,,,,,,284.70993519999865,284.70993519999865,284.70993519999865,284.70993519999865,284.70993519999865,284.70993519999865,284.70993519999865,284.70993519999865,284.70993519999865,284.70993519999865,1,v,0.457956500002183,285.1921803999994,286.2079072999986,286.2079072999986,286.2079072999986,286.2079072999986,286.2079072999986,12.68,1,287.2057853999995,290.7174011999996,,,,,,,,,,,,,999,2023-09-30_15h24.48.170,cgeRDMtask,2022.2.4,60.09120643287031,
,,,,,2,6.79,0.0,9.92,1,,,,,0,21,21,49,,,,,,,,,,,,,,,,,,,,,,,,,,,,,,,,,,,,,,,,,,,,,,,290.7174011999996,290.7174011999996,290.7174011999996,290.7174011999996,290.7174011999996,290.7174011999996,290.7174011999996,290.7174011999996,290.7174011999996,290.7174011999996,2,n,0.67483970000103,291.41600429999926,292.4313465999985,292.4313465999985,292.4313465999985,292.4313465999985,292.4313465999985,6.79,1,293.42969639999865,296.4421281999985,,,,,,,,,,,,,999,2023-09-30_15h24.48.170,cgeRDMtask,2022.2.4,60.09120643287031,
,,,,,1,19.86,0.0,0.0,1,,,,,0,22,22,42,,,,,,,,,,,,,,,,,,,,,,,,,,,,,,,,,,,,,,,,,,,,,,,296.4421281999985,296.4421281999985,296.4421281999985,296.4421281999985,296.4421281999985,296.4421281999985,296.4421281999985,296.4421281999985,296.4421281999985,296.4421281999985,1,v,0.7338798000000679,297.2076245999997,298.22276019999845,298.22276019999845,298.22276019999845,298.22276019999845,298.22276019999845,19.86,1,299.220928499999,302.73261509999975,,,,,,,,,,,,,999,2023-09-30_15h24.48.170,cgeRDMtask,2022.2.4,60.09120643287031,
,,,,,2,21.32,0.0,7.34,0,,,,,0,23,23,7,,,,,,,,,,,,,,,,,,,,,,,,,,,,,,,,,,,,,,,,,,,,,,,302.73261509999975,302.73261509999975,302.73261509999975,302.73261509999975,302.73261509999975,302.73261509999975,302.73261509999975,302.73261509999975,302.73261509999975,302.73261509999975,2,n,0.37157590000060736,303.13167219999923,304.147123499999,304.147123499999,304.147123499999,304.147123499999,304.147123499999,21.32,1,305.14531149999857,308.6570746999987,,,,,,,,,,,,,999,2023-09-30_15h24.48.170,cgeRDMtask,2022.2.4,60.09120643287031,
,,,,,2,10.12,0.0,6.94,0,,,,,0,24,24,38,,,,,,,,,,,,,,,,,,,,,,,,,,,,,,,,,,,,,,,,,,,,,,,308.6570746999987,308.6570746999987,308.6570746999987,308.6570746999987,308.6570746999987,308.6570746999987,308.6570746999987,308.6570746999987,308.6570746999987,308.6570746999987,2,v,0.41499780000049213,309.08949479999865,310.1046871999988,310.1046871999988,310.1046871999988,310.1046871999988,310.1046871999988,6.94,0,311.1030428999984,314.61466129999826,,,,,,,,,,,,,999,2023-09-30_15h24.48.170,cgeRDMtask,2022.2.4,60.09120643287031,
,,,,,2,22.97,0.0,6.51,0,,,,,0,25,25,5,,,,,,,,,,,,,,,,,,,,,,,,,,,,,,,,,,,,,,,,,,,,,,,314.61466129999826,314.61466129999826,314.61466129999826,314.61466129999826,314.61466129999826,314.61466129999826,314.61466129999826,314.61466129999826,314.61466129999826,314.61466129999826,2,n,0.5694027000008646,315.21356119999837,316.22920909999993,316.22920909999993,316.22920909999993,316.22920909999993,316.22920909999993,0.0,1,317.2271127999993,320.23955099999876,,,,,,,,,,,,,999,2023-09-30_15h24.48.170,cgeRDMtask,2022.2.4,60.09120643287031,
,,,,,2,18.77,0.0,8.61,0,,,,,0,26,26,15,,,,,,,,,,,,,,,,,,,,,,,,,,,,,,,,,,,,,,,,,,,,,,,320.23955099999876,320.23955099999876,320.23955099999876,320.23955099999876,320.23955099999876,320.23955099999876,320.23955099999876,320.23955099999876,320.23955099999876,320.23955099999876,2,v,0.5446205999996891,320.80519599999934,321.8204464999999,321.8204464999999,321.8204464999999,321.8204464999999,321.8204464999999,8.61,0,322.8187152999999,325.83121799999935,,,,,,,,,,,,,999,2023-09-30_15h24.48.170,cgeRDMtask,2022.2.4,60.09120643287031,
,,,,,1,0.0,0.0,7.55,1,,,,,0,27,27,45,,,,,,,,,,,,,,,,,,,,,,,,,,,,,,,,,,,,,,,,,,,,,,,325.83121799999935,325.83121799999935,325.83121799999935,325.83121799999935,325.83121799999935,325.83121799999935,325.83121799999935,325.83121799999935,325.83121799999935,325.83121799999935,1,n,0.368974300001355,326.2302252999998,327.2454710999991,327.2454710999991,327.2454710999991,327.2454710999991,327.2454710999991,7.55,0,328.24385579999944,331.25624739999876,,,,,,,,,,,,,999,2023-09-30_15h24.48.170,cgeRDMtask,2022.2.4,60.09120643287031,
,,,,,2,19.28,0.0,8.36,0,,,,,0,28,28,13,,,,,,,,,,,,,,,,,,,,,,,,,,,,,,,,,,,,,,,,,,,,,,,331.25624739999876,331.25624739999876,331.25624739999876,331.25624739999876,331.25624739999876,331.25624739999876,331.25624739999876,331.25624739999876,331.25624739999876,331.25624739999876,2,v,0.3674830000018119,331.6553834999995,332.6740983999989,332.6740983999989,332.6740983999989,332.6740983999989,332.6740983999989,8.36,0,333.66914759999963,337.18873469999926,,,,,,,,,,,,,999,2023-09-30_15h24.48.170,cgeRDMtask,2022.2.4,60.09120643287031,
,,,,,1,11.43,0.0,6.29,0,,,,,0,29,29,24,,,,,,,,,,,,,,,,,,,,,,,,,,,,,,,,,,,,,,,,,,,,,,,337.18873469999926,337.18873469999926,337.18873469999926,337.18873469999926,337.18873469999926,337.18873469999926,337.18873469999926,337.18873469999926,337.18873469999926,337.18873469999926,1,n,0.34790310000062163,337.56355729999996,338.5802068999983,338.5802068999983,338.5802068999983,338.5802068999983,338.5802068999983,6.29,0,339.5768614999997,343.10951749999913,,,,,,,,,,,,,999,2023-09-30_15h24.48.170,cgeRDMtask,2022.2.4,60.09120643287031,
,,,,,1,13.1,7.73,4.68,1,,,,,0,30,30,44,,,,,,,,,,,,,,,,,,,,,,,,,,,,,,,,,,,,,,,,,,,,,,,343.10951749999913,343.10951749999913,343.10951749999913,343.10951749999913,343.10951749999913,343.10951749999913,343.10951749999913,343.10951749999913,343.10951749999913,343.10951749999913,1,v,0.4026268000015989,343.53795139999966,344.556025599999,344.556025599999,344.556025599999,344.556025599999,344.556025599999,7.73,1,345.55136989999846,348.5726397999988,,,,,,,,,,,,,999,2023-09-30_15h24.48.170,cgeRDMtask,2022.2.4,60.09120643287031,
,,,,,2,15.7,0.0,10.15,0,,,,,0,31,31,33,,,,,,,,,,,,,,,,,,,,,,,,,,,,,,,,,,,,,,,,,,,,,,,348.5726397999988,348.5726397999988,348.5726397999988,348.5726397999988,348.5726397999988,348.5726397999988,348.5726397999988,348.5726397999988,348.5726397999988,348.5726397999988,2,n,0.4838760000002367,349.0793754999995,350.0956441999988,350.0956441999988,350.0956441999988,350.0956441999988,350.0956441999988,15.7,1,351.0931998999986,354.61043729999983,,,,,,,,,,,,,999,2023-09-30_15h24.48.170,cgeRDMtask,2022.2.4,60.09120643287031,
,,,,,1,17.73,0.0,3.13,0,,,,,0,32,32,2,,,,,,,,,,,,,,,,,,,,,,,,,,,,,,,,,,,,,,,,,,,,,,,354.61043729999983,354.61043729999983,354.61043729999983,354.61043729999983,354.61043729999983,354.61043729999983,354.61043729999983,354.61043729999983,354.61043729999983,354.61043729999983,1,v,0.4945934000006673,355.1367459999983,356.1577357999995,356.1577357999995,356.1577357999995,356.1577357999995,356.1577357999995,17.73,1,357.1506362,360.1745627,,,,,,,,,,,,,999,2023-09-30_15h24.48.170,cgeRDMtask,2022.2.4,60.09120643287031,
,,,,,1,14.72,0.0,4.64,0,,,,,0,33,33,6,,,,,,,,,,,,,,,,,,,,,,,,,,,,,,,,,,,,,,,,,,,,,,,360.1745627,360.1745627,360.1745627,360.1745627,360.1745627,360.1745627,360.1745627,360.1745627,360.1745627,360.1745627,1,n,0.5542124000003241,360.7450648999984,361.76162999999906,361.76162999999906,361.76162999999906,361.76162999999906,361.76162999999906,4.64,0,362.7588573999983,365.79171119999955,,,,,,,,,,,,,999,2023-09-30_15h24.48.170,cgeRDMtask,2022.2.4,60.09120643287031,
,,,,,2,15.27,0.0,10.37,0,,,,,0,34,34,37,,,,,,,,,,,,,,,,,,,,,,,,,,,,,,,,,,,,,,,,,,,,,,,365.79171119999955,365.79171119999955,365.79171119999955,365.79171119999955,365.79171119999955,365.79171119999955,365.79171119999955,365.79171119999955,365.79171119999955,365.79171119999955,2,v,0.41619250000076136,366.2369076999985,367.25726009999926,367.25726009999926,367.25726009999926,367.25726009999926,367.25726009999926,10.37,0,368.25072369999907,371.2880028999989,,,,,,,,,,,,,999,2023-09-30_15h24.48.170,cgeRDMtask,2022.2.4,60.09120643287031,
,,,,,1,16.6,0.0,9.7,0,,,,,0,35,35,27,,,,,,,,,,,,,,,,,,,,,,,,,,,,,,,,,,,,,,,,,,,,,,,371.2880028999989,371.2880028999989,371.2880028999989,371.2880028999989,371.2880028999989,371.2880028999989,371.2880028999989,371.2880028999989,371.2880028999989,371.2880028999989,1,n,0.48923650000142516,371.7953779999989,372.8160547999996,372.8160547999996,372.8160547999996,372.8160547999996,372.8160547999996,9.7,0,373.8087515999996,376.8233215,,,,,,,,,,,,,999,2023-09-30_15h24.48.170,cgeRDMtask,2022.2.4,60.09120643287031,
,,,,,2,13.04,0.0,5.48,0,,,,,0,36,36,12,,,,,,,,,,,,,,,,,,,,,,,,,,,,,,,,,,,,,,,,,,,,,,,376.8233215,376.8233215,376.8233215,376.8233215,376.8233215,376.8233215,376.8233215,376.8233215,376.8233215,376.8233215,2,v,0.3848801000003732,377.2370463999996,378.2586130999989,378.2586130999989,378.2586130999989,378.2586130999989,378.2586130999989,5.48,0,379.25059059999876,382.7727240999993,,,,,,,,,,,,,999,2023-09-30_15h24.48.170,cgeRDMtask,2022.2.4,60.09120643287031,
,,,,,2,17.94,0.0,9.03,0,,,,,0,37,37,19,,,,,,,,,,,,,,,,,,,,,,,,,,,,,,,,,,,,,,,,,,,,,,,382.7727240999993,382.7727240999993,382.7727240999993,382.7727240999993,382.7727240999993,382.7727240999993,382.7727240999993,382.7727240999993,382.7727240999993,382.7727240999993,2,n,0.3641090000000986,383.1614821999992,384.18122009999934,384.18122009999934,384.18122009999934,384.18122009999934,384.18122009999934,0.0,1,385.1749525999985,388.1948934999982,,,,,,,,,,,,,999,2023-09-30_15h24.48.170,cgeRDMtask,2022.2.4,60.09120643287031,
,,,,,1,12.08,0.0,5.96,0,,,,,0,38,38,18,,,,,,,,,,,,,,,,,,,,,,,,,,,,,,,,,,,,,,,,,,,,,,,388.1948934999982,388.1948934999982,388.1948934999982,388.1948934999982,388.1948934999982,388.1948934999982,388.1948934999982,388.1948934999982,388.1948934999982,388.1948934999982,1,v,0.3411586999991414,388.5528319999994,389.5729907999994,389.5729907999994,389.5729907999994,389.5729907999994,389.5729907999994,12.08,1,390.56696419999935,394.0887024999993,,,,,,,,,,,,,999,2023-09-30_15h24.48.170,cgeRDMtask,2022.2.4,60.09120643287031,
,,,,,2,11.62,0.0,6.19,0,,,,,0,39,39,22,,,,,,,,,,,,,,,,,,,,,,,,,,,,,,,,,,,,,,,,,,,,,,,394.0887024999993,394.0887024999993,394.0887024999993,394.0887024999993,394.0887024999993,394.0887024999993,394.0887024999993,394.0887024999993,394.0887024999993,394.0887024999993,2,n,0.5271888000006584,394.6441337999986,395.6622228999986,395.6622228999986,395.6622228999986,395.6622228999986,395.6622228999986,0.0,1,396.6576613999987,399.67675749999944,,,,,,,,,,,,,999,2023-09-30_15h24.48.170,cgeRDMtask,2022.2.4,60.09120643287031,
,,,,,1,17.59,0.0,9.2,0,,,,,0,40,40,21,,,,,,,,,,,,,,,,,,,,,,,,,,,,,,,,,,,,,,,,,,,,,,,399.67675749999944,399.67675749999944,399.67675749999944,399.67675749999944,399.67675749999944,399.67675749999944,399.67675749999944,399.67675749999944,399.67675749999944,399.67675749999944,1,v,0.347806000001583,400.07611219999853,401.0865133999996,401.0865133999996,401.0865133999996,401.0865133999996,401.0865133999996,17.59,1,402.09940669999924,405.6290721999994,401.0865133999996,,,,,,,,,,,,999,2023-09-30_15h24.48.170,cgeRDMtask,2022.2.4,60.09120643287031,
,,,,,1,10.35,0.0,0.0,1,,,,,0,41,41,40,,,,,,,,,,,,,,,,,,,,,,,,,,,,,,,,,,,,,,,,,,,,,,,405.6290721999994,405.6290721999994,405.6290721999994,405.6290721999994,405.6290721999994,405.6290721999994,405.6290721999994,405.6290721999994,405.6290721999994,405.6290721999994,1,n,0.5632829000005586,406.20995779999976,407.2279652999987,407.2279652999987,407.2279652999987,407.2279652999987,407.2279652999987,0.0,0,408.2238164999999,411.74650309999925,,,,,,,,,,,,,999,2023-09-30_15h24.48.170,cgeRDMtask,2022.2.4,60.09120643287031,
,,,,,1,10.73,0.0,6.63,0,,,,,0,42,42,30,,,,,,,,,,,,,,,,,,,,,,,,,,,,,,,,,,,,,,,,,,,,,,,411.74650309999925,411.74650309999925,411.74650309999925,411.74650309999925,411.74650309999925,411.74650309999925,411.74650309999925,411.74650309999925,411.74650309999925,411.74650309999925,1,v,0.4546394999997574,412.21784769999977,413.23742179999863,413.23742179999863,413.23742179999863,413.23742179999863,413.23742179999863,10.73,1,414.2311508999992,417.76686459999837,,,,,,,,,,,,,999,2023-09-30_15h24.48.170,cgeRDMtask,2022.2.4,60.09120643287031,
,,,,,2,16.26,0.0,9.87,0,,,,,0,43,43,29,,,,,,,,,,,,,,,,,,,,,,,,,,,,,,,,,,,,,,,,,,,,,,,417.76686459999837,417.76686459999837,417.76686459999837,417.76686459999837,417.76686459999837,417.76686459999837,417.76686459999837,417.76686459999837,417.76686459999837,417.76686459999837,2,n,0.4336964000012813,418.224862699999,419.24483619999955,419.24483619999955,419.24483619999955,419.24483619999955,419.24483619999955,0.0,1,420.2388906999986,423.2712827999985,,,,,,,,,,,,,999,2023-09-30_15h24.48.170,cgeRDMtask,2022.2.4,60.09120643287031,
,,,,,1,12.36,0.0,5.82,0,,,,,0,44,44,16,,,,,,,,,,,,,,,,,,,,,,,,,,,,,,,,,,,,,,,,,,,,,,,423.2712827999985,423.2712827999985,423.2712827999985,423.2712827999985,423.2712827999985,423.2712827999985,423.2712827999985,423.2712827999985,423.2712827999985,423.2712827999985,1,v,0.32054190000053495,423.6172386999988,424.6437500999982,424.6437500999982,424.6437500999982,424.6437500999982,424.6437500999982,12.36,1,425.6306181,428.66187219999847,,,,,,,,,,,,,999,2023-09-30_15h24.48.170,cgeRDMtask,2022.2.4,60.09120643287031,
,,,,,2,0.0,0.0,10.25,1,,,,,0,45,45,46,,,,,,,,,,,,,,,,,,,,,,,,,,,,,,,,,,,,,,,,,,,,,,,428.66187219999847,428.66187219999847,428.66187219999847,428.66187219999847,428.66187219999847,428.66187219999847,428.66187219999847,428.66187219999847,428.66187219999847,428.66187219999847,2,n,0.3540526000015234,429.04225939999924,430.06008159999874,430.06008159999874,430.06008159999874,430.06008159999874,430.06008159999874,0.0,1,431.05591039999854,434.59184319999986,,,,,,,,,,,,,999,2023-09-30_15h24.48.170,cgeRDMtask,2022.2.4,60.09120643287031,
,,,,,1,15.09,0.0,10.46,0,,,,,0,46,46,39,,,,,,,,,,,,,,,,,,,,,,,,,,,,,,,,,,,,,,,,,,,,,,,434.59184319999986,434.59184319999986,434.59184319999986,434.59184319999986,434.59184319999986,434.59184319999986,434.59184319999986,434.59184319999986,434.59184319999986,434.59184319999986,1,v,0.48001040000053763,435.0998058999994,436.121586199999,436.121586199999,436.121586199999,436.121586199999,436.121586199999,15.09,1,437.1133065999984,440.64459969999916,,,,,,,,,,,,,999,2023-09-30_15h24.48.170,cgeRDMtask,2022.2.4,60.09120643287031,
,,,,,1,19.86,0.0,8.07,0,,,,,0,47,47,11,,,,,,,,,,,,,,,,,,,,,,,,,,,,,,,,,,,,,,,,,,,,,,,440.64459969999916,440.64459969999916,440.64459969999916,440.64459969999916,440.64459969999916,440.64459969999916,440.64459969999916,440.64459969999916,440.64459969999916,440.64459969999916,1,n,1.244092200000523,441.9060912999994,442.92534179999893,442.92534179999893,442.92534179999893,442.92534179999893,442.92534179999893,8.07,0,443.9197629999999,447.44148359999963,,,,,,,,,,,,,999,2023-09-30_15h24.48.170,cgeRDMtask,2022.2.4,60.09120643287031,
,,,,,2,18.33,0.0,8.84,0,,,,,0,48,48,17,,,,,,,,,,,,,,,,,,,,,,,,,,,,,,,,,,,,,,,,,,,,,,,447.44148359999963,447.44148359999963,447.44148359999963,447.44148359999963,447.44148359999963,447.44148359999963,447.44148359999963,447.44148359999963,447.44148359999963,447.44148359999963,2,v,0.6147998000014923,448.08029599999827,449.09516619999886,449.09516619999886,449.09516619999886,449.09516619999886,449.09516619999886,8.84,0,450.0935170999983,453.1059067999995,,,,,,,,,,,,,999,2023-09-30_15h24.48.170,cgeRDMtask,2022.2.4,60.09120643287031,
,,,,,2,15.96,0.0,10.02,0,,,,,0,49,49,31,,,,,,,,,,,,,,,,,,,,,,,,,,,,,,,,,,,,,,,,,,,,,,,453.1059067999995,453.1059067999995,453.1059067999995,453.1059067999995,453.1059067999995,453.1059067999995,453.1059067999995,453.1059067999995,453.1059067999995,453.1059067999995,2,n,0.7671033999995416,453.9043222,454.9282027999998,454.9282027999998,454.9282027999998,454.9282027999998,454.9282027999998,0.0,1,455.91810819999955,462.389776,,,,,,,,,,,,,999,2023-09-30_15h24.48.170,cgeRDMtask,2022.2.4,60.09120643287031,
,,,,,,,,,,,,,,,,,,0,0,0,0,,,,,,,,,,,,,,,,,,,,,,,,,,,,,,,,,,,,,,,,,,,,,,,,,,,,,,,,,,,,,,,,,,,../CGE/bespoke_choicesets/bespoke_choiceset_rhoInd200_muInd001.csv,462.389776,466.4026124999982,../CGE/bespoke_choicesets/bespoke_choiceset_rhoInd200_muInd001.csv,200,1,,,,,,999,2023-09-30_15h24.48.170,cgeRDMtask,2022.2.4,60.09120643287031,
,,,,,,,,,,,,,,,,,,,,,,,,,,,,,,,,,,,,,,,,,,,,,,,,,,,,,,,,,,,,,,,,,,,,,,,,,,,,,,,,,,,,,,,,,,,,,,466.4026124999982,468.41606279999905,468.41606279999905,v,2.2890133000018977,999,2023-09-30_15h24.48.170,cgeRDMtask,2022.2.4,60.09120643287031,
,,,,,,,,,,,,,,,,,,,,,,,,,,,,,,,,,,,,,,,,,,,,,,,,,,,,,,,,,,,,,,,,470.8120405999998,470.8120405999998,470.8120405999998,470.8120405999998,470.8120405999998,470.8120405999998,470.8120405999998,470.8120405999998,470.8120405999998,470.8120405999998,,,,,,,,,,,,,,,,,,,,,,,,,,,,,,,
