riskyGain,riskyLoss,alternative,isi,iti,loc,riskyoption1,riskyoption2,safeoption,ischecktrial,choiceP,easy0difficult1,trials.thisRepN,trials.thisTrialN,trials.thisN,trials.thisIndex,staticRDM.thisRepN,staticRDM.thisTrialN,staticRDM.thisN,staticRDM.thisIndex,dynamicRDM.thisRepN,dynamicRDM.thisTrialN,dynamicRDM.thisN,dynamicRDM.thisIndex,Instructions.started,inst1.started,inst1.keys,inst1.rt,startPract.started,startPracResp.started,startPracResp.keys,startPracResp.rt,circleLeft.started,circleRight.started,lineLeft.started,orText.started,lossTxt.started,gainTxt.started,safeTxt.started,vLeft.started,nRight.started,choice1.started,choice1.keys,choice1.rt,isiText.started,isiText.stopped,noRespTxt.started,ocGamble.started,ocSafe.started,outcomeText.started,hideGamble.started,noRespTxt.stopped,ocGamble.stopped,ocSafe.stopped,outcomeText.stopped,hideGamble.stopped,outcome,itiText.started,itiText.stopped,postPracText.started,postPractResp.started,postPractResp.keys,postPractResp.rt,circleLeftReal.started,circleRightReal.started,lineLeftReal.started,orTextReal.started,lossTxtReal.started,gainTxtReal.started,safeTxtReal.started,vLeftReal.started,nRightReal.started,realChoice.started,loc,realChoice.keys,realChoice.rt,isiTextReal.started,isiTextReal.stopped,noRespTxtReal.started,ocGambleReal.started,ocSafeReal.started,outcomeTextReal.started,hideGambleReal.started,outcomes,choices,itiTextReal.started,vLeftReal.stopped,nRightReal.stopped,realChoice.stopped,dynamicChoiceSet.routineStartVal,settingUpForPart2.started,settingUpForPart2.stopped,dynamicChoiceSet.routineEndVal,bestRho.routineEndVal,bestMu.routineEndVal,text.started,staticLoadChoiceset.started,moveToRDMpart2.started,key_resp.started,key_resp.keys,key_resp.rt,noRespTxtReal.stopped,ocGambleReal.stopped,ocSafeReal.stopped,outcomeTextReal.stopped,hideGambleReal.stopped,breaktxt.started,stopBreak.started,stopBreak.keys,stopBreak.rt,participant,session,date,expName,psychopyVersion,frameRate,
,,,,,,,,,,,,,,,,,,,,,,,,28.312423299998045,30.308396500069648,return,6.02877079998143,,,,,,,,,,,,,,,,,,,,,,,,,,,,,,,,,,,,,,,,,,,,,,,,,,,,,,,,,,,,,,,,,,,,,,,,,,,,,,,,,,,,001,2023-02-14_12h13.19.994,CGTriskyDMtask,2022.2.4,59.968972054961114,
,,,,,,,,,,,,,,,,,,,,,,,,,,,,36.36597739998251,38.36313129996415,n,0.19882849999703467,,,,,,,,,,,,,,,,,,,,,,,,,,,,,,,,,,,,,,,,,,,,,,,,,,,,,,,,,,,,,,,,,,,,,,,,,,,,,,,,001,2023-02-14_12h13.19.994,CGTriskyDMtask,2022.2.4,59.968972054961114,
18.23,0,9.45,2,1,1,,,,,,,0,0,0,0,,,,,,,,,,,,,,,,,38.622270700056106,38.622270700056106,38.622270700056106,38.622270700056106,38.622270700056106,38.622270700056106,38.622270700056106,40.57698120002169,40.57698120002169,40.57698120002169,n,1.049262800021097,41.657163199968636,43.67118559998926,43.67118559998926,43.67118559998926,43.67118559998926,43.67118559998926,43.67118559998926,44.669750900007784,44.669750900007784,44.669750900007784,44.669750900007784,44.669750900007784,9.45,44.669750900007784,45.70032750000246,,,,,,,,,,,,,,,1,,,,,,,,,,,,,,,,,,,,,,,,,,,,,,,,,,,,,,001,2023-02-14_12h13.19.994,CGTriskyDMtask,2022.2.4,59.968972054961114,
53.27,0,35.16,1,3,1,,,,,,,0,1,1,1,,,,,,,,,,,,,,,,,45.70032750000246,45.70032750000246,45.70032750000246,45.70032750000246,45.70032750000246,45.70032750000246,45.70032750000246,47.6829379000701,47.6829379000701,47.6829379000701,n,0.5623534000478685,48.26402580004651,49.288825200055726,49.288825200055726,49.288825200055726,49.288825200055726,49.288825200055726,49.288825200055726,,,,,,35.16,50.294518499984406,53.332051799981855,,,,,,,,,,,,,,,1,,,,,,,,,,,,,,,,,,,,,,,,,,,,,,,,,,,,,,001,2023-02-14_12h13.19.994,CGTriskyDMtask,2022.2.4,59.968972054961114,
8.27,0,1.15,1,2,2,,,,,,,0,2,2,2,,,,,,,,,,,,,,,,,53.332051799981855,53.332051799981855,53.332051799981855,53.332051799981855,53.332051799981855,53.332051799981855,53.332051799981855,55.30462720000651,55.30462720000651,55.30462720000651,n,0.568426699959673,55.902647500042804,56.928780199959874,56.928780199959874,56.928780199959874,56.928780199959874,56.928780199959874,56.928780199959874,,,,,,8.27,57.93315020005684,59.96576930000447,,,,,,,,,,,,,,,2,,,,,,,,,,,,,,,,,,,,,,,,,,,,,,,,,,,,,,001,2023-02-14_12h13.19.994,CGTriskyDMtask,2022.2.4,59.968972054961114,
45.88,0,40.41,3,1,1,,,,,,,0,3,3,3,,,,,,,,,,,,,,,,,59.96576930000447,59.96576930000447,59.96576930000447,59.96576930000447,59.96576930000447,59.96576930000447,59.96576930000447,61.944769200054,61.944769200054,61.944769200054,n,0.5579778000246733,62.52605059999041,65.54871180001646,65.54871180001646,65.54871180001646,65.54871180001646,65.54871180001646,65.54871180001646,,,,,,40.41,66.55314380000345,67.56865589995869,,,,,,,,,,,,,,,1,,,,,,,,,,,,,,,,,,,,,,,,,,,,,,,,,,,,,,001,2023-02-14_12h13.19.994,CGTriskyDMtask,2022.2.4,59.968972054961114,
,,,,,,,,,,,,,,,,,,,,,,,,,,,,,,,,,,,,,,,,,,,,,,,,,,,,,,,,,,,67.56865589995869,67.56865589995869,n,1.7824226999655366,,,,,,,,,,,,,,,,,,,,,,,,,,,,,,,,,,,,,,,,,,,,,,,,,001,2023-02-14_12h13.19.994,CGTriskyDMtask,2022.2.4,59.968972054961114,
,,,,,2,19.86,0.0,0.0,1,,,,,,,0,0,0,42,,,,,,,,,,,,,,,,,,,,,,,,,,,,,,,,,,,,,,,,,,,,69.40665140002966,69.40665140002966,69.40665140002966,69.40665140002966,69.40665140002966,69.40665140002966,69.40665140002966,71.38036399998236,71.38036399998236,71.38036399998236,2,n,0.6794883999973536,72.07845969998743,72.58897739998065,72.58897739998065,72.58897739998065,72.58897739998065,72.58897739998065,72.58897739998065,19.86,1,73.59261280007195,,,,,,,,,,,,,,,,,,,,,,,,,,001,2023-02-14_12h13.19.994,CGTriskyDMtask,2022.2.4,59.968972054961114,
,,,,,2,21.32,0.0,7.34,0,,,,,,,0,1,1,7,,,,,,,,,,,,,,,,,,,,,,,,,,,,,,,,,,,,,,,,,,,,74.60885560000315,74.60885560000315,74.60885560000315,74.60885560000315,74.60885560000315,74.60885560000315,74.60885560000315,76.57266569999047,76.57266569999047,76.57266569999047,2,None,,78.58510420005769,,79.09073769999668,79.09073769999668,79.09073769999668,79.09073769999668,79.09073769999668,nan,nan,80.08299170003738,,,,,,,,,,,,,,,,,,,,,,,,,,001,2023-02-14_12h13.19.994,CGTriskyDMtask,2022.2.4,59.968972054961114,
,,,,,1,12.08,0.0,5.96,0,,,,,,,0,2,2,18,,,,,,,,,,,,,,,,,,,,,,,,,,,,,,,,,,,,,,,,,,,,81.09839699999429,81.09839699999429,81.09839699999429,81.09839699999429,81.09839699999429,81.09839699999429,81.09839699999429,83.07956490002107,83.07956490002107,83.07956490002107,1,None,,85.09191870002542,,85.59138540003914,85.59138540003914,85.59138540003914,85.59138540003914,85.59138540003914,nan,nan,86.58932659996208,,,,,,,,,,,,,,,,,,,,,,,,,,001,2023-02-14_12h13.19.994,CGTriskyDMtask,2022.2.4,59.968972054961114,
,,,,,1,13.45,0.0,5.27,0,,,,,,,0,3,3,10,,,,,,,,,,,,,,,,,,,,,,,,,,,,,,,,,,,,,,,,,,,,87.61679470003583,87.61679470003583,87.61679470003583,87.61679470003583,87.61679470003583,87.61679470003583,87.61679470003583,89.56964080000762,89.56964080000762,89.56964080000762,1,None,,91.58211720001418,,92.08180020004511,92.08180020004511,92.08180020004511,92.08180020004511,92.08180020004511,nan,nan,93.09659349999856,,,,,,,,,,,,,,,,,,,,,,,,,,001,2023-02-14_12h13.19.994,CGTriskyDMtask,2022.2.4,59.968972054961114,
,,,,,2,17.59,0.0,9.2,0,,,,,,,0,4,4,21,,,,,,,,,,,,,,,,,,,,,,,,,,,,,,,,,,,,,,,,,,,,94.11154680000618,94.11154680000618,94.11154680000618,94.11154680000618,94.11154680000618,94.11154680000618,94.11154680000618,96.07671729999129,96.07671729999129,96.07671729999129,2,None,,98.08902399998624,,98.58862759999465,98.58862759999465,98.58862759999465,98.58862759999465,98.58862759999465,nan,nan,99.58683679997921,,,,,,,,,,,,,,,,,,,,,,,,,,001,2023-02-14_12h13.19.994,CGTriskyDMtask,2022.2.4,59.968972054961114,
,,,,,1,14.72,0.0,4.64,0,,,,,,,0,5,5,6,,,,,,,,,,,,,,,,,,,,,,,,,,,,,,,,,,,,,,,,,,,,100.5859701000154,100.5859701000154,100.5859701000154,100.5859701000154,100.5859701000154,100.5859701000154,100.5859701000154,102.56630890001543,102.56630890001543,102.56630890001543,1,None,,104.59589039999992,,105.0953492000699,105.0953492000699,105.0953492000699,105.0953492000699,105.0953492000699,nan,nan,106.09363720007241,104.58041529997718,104.58041529997718,104.58041529997718,,,,,,,,,,,,,,,,,,,,,,,001,2023-02-14_12h13.19.994,CGTriskyDMtask,2022.2.4,59.968972054961114,
,,,,,1,10.24,0.0,6.88,0,,,,,,,0,6,6,36,,,,,,,,,,,,,,,,,,,,,,,,,,,,,,,,,,,,,,,,,,,,107.12164919998031,107.12164919998031,107.12164919998031,107.12164919998031,107.12164919998031,107.12164919998031,107.12164919998031,109.07358530000784,109.07358530000784,109.07358530000784,1,None,,111.08610680000857,,111.585640000063,111.585640000063,111.585640000063,111.585640000063,111.585640000063,nan,nan,112.58409829996526,,,,,,,,,,,,,,,,,,,,,,,,,,001,2023-02-14_12h13.19.994,CGTriskyDMtask,2022.2.4,59.968972054961114,
,,,,,1,10.39,0.0,6.81,0,,,,,,,0,7,7,34,,,,,,,,,,,,,,,,,,,,,,,,,,,,,,,,,,,,,,,,,,,,113.58774780004751,113.58774780004751,113.58774780004751,113.58774780004751,113.58774780004751,113.58774780004751,113.58774780004751,115.5637498999713,115.5637498999713,115.5637498999713,1,None,,117.59293949999847,,118.09242070000619,118.09242070000619,118.09242070000619,118.09242070000619,118.09242070000619,nan,nan,119.09082040004432,117.5774125000462,117.5774125000462,117.5774125000462,,,,,,,,,,,,,,,,,,,,,,,001,2023-02-14_12h13.19.994,CGTriskyDMtask,2022.2.4,59.968972054961114,
,,,,,1,0.0,0.0,10.25,1,,,,,,,0,8,8,46,,,,,,,,,,,,,,,,,,,,,,,,,,,,,,,,,,,,,,,,,,,,120.11593490000814,120.11593490000814,120.11593490000814,120.11593490000814,120.11593490000814,120.11593490000814,120.11593490000814,122.07060520001687,122.07060520001687,122.07060520001687,1,None,,124.08284819999244,,124.5826364000095,124.5826364000095,124.5826364000095,124.5826364000095,124.5826364000095,nan,nan,125.59722590004094,,,,,,,,,,,,,,,,,,,,,,,,,,001,2023-02-14_12h13.19.994,CGTriskyDMtask,2022.2.4,59.968972054961114,
,,,,,1,13.1,7.73,4.68,1,,,,,,,0,9,9,44,,,,,,,,,,,,,,,,,,,,,,,,,,,,,,,,,,,,,,,,,,,,126.61901220004074,126.61901220004074,126.61901220004074,126.61901220004074,126.61901220004074,126.61901220004074,126.61901220004074,128.5775389999617,128.5775389999617,128.5775389999617,1,None,,130.59004809998441,,131.08936830004677,131.08936830004677,131.08936830004677,131.08936830004677,131.08936830004677,nan,nan,132.08783470001072,,,,,,,,,,,,,,,,,,,,,,,,,,001,2023-02-14_12h13.19.994,CGTriskyDMtask,2022.2.4,59.968972054961114,
,,,,,2,17.73,0.0,3.13,0,,,,,,,0,10,10,2,,,,,,,,,,,,,,,,,,,,,,,,,,,,,,,,,,,,,,,,,,,,133.1094463999616,133.1094463999616,133.1094463999616,133.1094463999616,133.1094463999616,133.1094463999616,133.1094463999616,135.0677386999596,135.0677386999596,135.0677386999596,2,None,,137.0803635000484,137.5796735000331,137.5796735000331,137.5796735000331,137.5796735000331,137.5796735000331,137.5796735000331,nan,nan,138.5946363999974,,,,,,,,,,,,,,,,,,,,,,,,,,001,2023-02-14_12h13.19.994,CGTriskyDMtask,2022.2.4,59.968972054961114,
,,,,,2,15.96,0.0,10.02,0,,,,,,,0,11,11,31,,,,,,,,,,,,,,,,,,,,,,,,,,,,,,,,,,,,,,,,,,,,139.6115138999885,139.6115138999885,139.6115138999885,139.6115138999885,139.6115138999885,139.6115138999885,139.6115138999885,141.57443100004457,141.57443100004457,141.57443100004457,2,None,,143.58706689998507,,144.08978470007423,144.08978470007423,144.08978470007423,144.08978470007423,144.08978470007423,nan,nan,145.08474930003285,,,,,,,,,,,,,,,,,,,,,,,,,,001,2023-02-14_12h13.19.994,CGTriskyDMtask,2022.2.4,59.968972054961114,
,,,,,1,14.26,0.0,0.0,1,,,,,,,0,12,12,41,,,,,,,,,,,,,,,,,,,,,,,,,,,,,,,,,,,,,,,,,,,,146.1008584999945,146.1008584999945,146.1008584999945,146.1008584999945,146.1008584999945,146.1008584999945,146.1008584999945,148.0647428999655,148.0647428999655,148.0647428999655,1,None,,150.09390660002828,,150.59341189998668,150.59341189998668,150.59341189998668,150.59341189998668,150.59341189998668,nan,nan,151.59171830001287,150.07841680001002,150.07841680001002,150.07841680001002,,,,,,,,,,,,,,,,,,,,,,,001,2023-02-14_12h13.19.994,CGTriskyDMtask,2022.2.4,59.968972054961114,
,,,,,2,16.0,0.0,4.0,0,,,,,,,0,13,13,4,,,,,,,,,,,,,,,,,,,,,,,,,,,,,,,,,,,,,,,,,,,,152.59575550002046,152.59575550002046,152.59575550002046,152.59575550002046,152.59575550002046,152.59575550002046,152.59575550002046,154.5716994999675,154.5716994999675,154.5716994999675,2,None,,156.58420879999176,,157.08373850001954,157.08373850001954,157.08373850001954,157.08373850001954,157.08373850001954,nan,nan,158.0819508000277,,,,,,,,,,,,,,,,,,,,,,,,,,001,2023-02-14_12h13.19.994,CGTriskyDMtask,2022.2.4,59.968972054961114,
,,,,,1,18.33,0.0,8.84,0,,,,,,,0,14,14,17,,,,,,,,,,,,,,,,,,,,,,,,,,,,,,,,,,,,,,,,,,,,159.10161780007184,159.10161780007184,159.10161780007184,159.10161780007184,159.10161780007184,159.10161780007184,159.10161780007184,161.07855079998262,161.07855079998262,161.07855079998262,1,v,0.9024715999839827,162.00900840002578,162.50920530001167,162.50920530001167,162.50920530001167,162.50920530001167,162.50920530001167,162.50920530001167,18.33,1,163.52379330003168,,,,,,,,,,,,,,,,,,,,,,,,,,001,2023-02-14_12h13.19.994,CGTriskyDMtask,2022.2.4,59.968972054961114,
,,,,,2,16.26,0.0,9.87,0,,,,,,,0,15,15,29,,,,,,,,,,,,,,,,,,,,,,,,,,,,,,,,,,,,,,,,,,,,164.5253249000525,164.5253249000525,164.5253249000525,164.5253249000525,164.5253249000525,164.5253249000525,164.5253249000525,166.50360779999755,166.50360779999755,166.50360779999755,2,n,0.47789590002503246,167.00241750001442,,167.52577449998353,167.52577449998353,167.52577449998353,167.52577449998353,167.52577449998353,16.26,1,168.51627430005465,,,,,,,,,,,,,,,,,,,,,,,,,,001,2023-02-14_12h13.19.994,CGTriskyDMtask,2022.2.4,59.968972054961114,
,,,,,1,10.73,0.0,6.63,0,,,,,,,0,16,16,30,,,,,,,,,,,,,,,,,,,,,,,,,,,,,,,,,,,,,,,,,,,,169.5334928999655,169.5334928999655,169.5334928999655,169.5334928999655,169.5334928999655,169.5334928999655,169.5334928999655,171.49612270004582,171.49612270004582,171.49612270004582,1,v,0.4244763000169769,171.9446416000137,,172.4645165000111,172.4645165000111,172.4645165000111,172.4645165000111,172.4645165000111,0.0,1,173.45890149998013,,,,,,,,,,,,,,,,,,,,,,,,,,001,2023-02-14_12h13.19.994,CGTriskyDMtask,2022.2.4,59.968972054961114,
,,,,,2,10.95,0.0,6.53,0,,,,,,,0,17,17,28,,,,,,,,,,,,,,,,,,,,,,,,,,,,,,,,,,,,,,,,,,,,174.46233840007335,174.46233840007335,174.46233840007335,174.46233840007335,174.46233840007335,174.46233840007335,174.46233840007335,176.43861339997966,176.43861339997966,176.43861339997966,2,n,0.5740954999346286,177.0365557000041,177.53704920003656,177.53704920003656,177.53704920003656,177.53704920003656,177.53704920003656,177.53704920003656,0.0,1,178.55106139997952,,,,,,,,,,,,,,,,,,,,,,,,,,001,2023-02-14_12h13.19.994,CGTriskyDMtask,2022.2.4,59.968972054961114,
,,,,,1,10.12,0.0,6.94,0,,,,,,,0,18,18,38,,,,,,,,,,,,,,,,,,,,,,,,,,,,,,,,,,,,,,,,,,,,179.56731940002646,179.56731940002646,179.56731940002646,179.56731940002646,179.56731940002646,179.56731940002646,179.56731940002646,181.53115359996445,181.53115359996445,181.53115359996445,1,v,0.9212960000149906,182.47808849997818,182.9786181000527,182.9786181000527,182.9786181000527,182.9786181000527,182.9786181000527,182.9786181000527,0.0,1,183.99287089996506,,,,,,,,,,,,,,,,,,,,,,,,,,001,2023-02-14_12h13.19.994,CGTriskyDMtask,2022.2.4,59.968972054961114,
,,,,,2,17.94,0.0,9.03,0,,,,,,,0,19,19,19,,,,,,,,,,,,,,,,,,,,,,,,,,,,,,,,,,,,,,,,,,,,185.0079675000161,185.0079675000161,185.0079675000161,185.0079675000161,185.0079675000161,185.0079675000161,185.0079675000161,186.97275109996554,186.97275109996554,186.97275109996554,2,n,1.29050629993435,188.2863262000028,188.7860388000263,188.7860388000263,188.7860388000263,188.7860388000263,188.7860388000263,188.7860388000263,17.94,1,189.8007585000014,,,,,,,,,,,,,,,,,,,,,,,,,,001,2023-02-14_12h13.19.994,CGTriskyDMtask,2022.2.4,59.968972054961114,
,,,,,1,11.2,0.0,6.4,0,,,,,,,0,20,20,26,,,,,,,,,,,,,,,,,,,,,,,,,,,,,,,,,,,,,,,,,,,,190.82023790001404,190.82023790001404,190.82023790001404,190.82023790001404,190.82023790001404,190.82023790001404,190.82023790001404,192.78056069999002,192.78056069999002,192.78056069999002,1,v,0.9746931999688968,193.77794190007262,194.282713899971,194.282713899971,194.282713899971,194.282713899971,194.282713899971,194.282713899971,11.2,1,195.2925619999878,,,,,,,,,,,,,,,,,,,,,,,,,,001,2023-02-14_12h13.19.994,CGTriskyDMtask,2022.2.4,59.968972054961114,
,,,,,2,0.0,0.0,7.55,1,,,,,,,0,21,21,45,,,,,,,,,,,,,,,,,,,,,,,,,,,,,,,,,,,,,,,,,,,,196.3101166000124,196.3101166000124,196.3101166000124,196.3101166000124,196.3101166000124,196.3101166000124,196.3101166000124,198.27241930004675,198.27241930004675,198.27241930004675,2,n,0.5483392999740317,198.83700279996265,199.34134779998567,199.34134779998567,199.34134779998567,199.34134779998567,199.34134779998567,199.34134779998567,0.0,1,200.35148319997825,,,,,,,,,,,,,,,,,,,,,,,,,,001,2023-02-14_12h13.19.994,CGTriskyDMtask,2022.2.4,59.968972054961114,
,,,,,2,12.68,0.0,5.66,0,,,,,,,0,22,22,14,,,,,,,,,,,,,,,,,,,,,,,,,,,,,,,,,,,,,,,,,,,,201.36969279998448,201.36969279998448,201.36969279998448,201.36969279998448,201.36969279998448,201.36969279998448,201.36969279998448,203.33149999997113,203.33149999997113,203.33149999997113,2,n,1.5847979999380186,204.94430520001333,205.44456149998587,205.44456149998587,205.44456149998587,205.44456149998587,205.44456149998587,205.44456149998587,0.0,1,206.45902970002498,,,,,,,,,,,,,,,,,,,,,,,,,,001,2023-02-14_12h13.19.994,CGTriskyDMtask,2022.2.4,59.968972054961114,
,,,,,1,17.28,0.0,9.36,0,,,,,,,0,23,23,23,,,,,,,,,,,,,,,,,,,,,,,,,,,,,,,,,,,,,,,,,,,,207.47842110006604,207.47842110006604,207.47842110006604,207.47842110006604,207.47842110006604,207.47842110006604,207.47842110006604,209.4388834000565,209.4388834000565,209.4388834000565,1,v,1.0411904000211507,210.50277340004686,211.01994430006016,211.01994430006016,211.01994430006016,211.01994430006016,211.01994430006016,211.01994430006016,17.28,1,212.0173085000133,,,,,,,,,,,,,,,,,,,,,,,,,,001,2023-02-14_12h13.19.994,CGTriskyDMtask,2022.2.4,59.968972054961114,
,,,,,2,20.03,0.0,1.99,0,,,,,,,0,24,24,0,,,,,,,,,,,,,,,,,,,,,,,,,,,,,,,,,,,,,,,,,,,,213.03063900000416,213.03063900000416,213.03063900000416,213.03063900000416,213.03063900000416,213.03063900000416,213.03063900000416,214.99727260007057,214.99727260007057,214.99727260007057,2,n,0.4582484000129625,215.47850409999955,215.9784678000724,215.9784678000724,215.9784678000724,215.9784678000724,215.9784678000724,215.9784678000724,0.0,1,216.99308370007202,,,,,,,,,,,,,,,,,,,,,,,,,,001,2023-02-14_12h13.19.994,CGTriskyDMtask,2022.2.4,59.968972054961114,
,,,,,2,13.04,0.0,5.48,0,,,,,,,0,25,25,12,,,,,,,,,,,,,,,,,,,,,,,,,,,,,,,,,,,,,,,,,,,,218.02119110000785,218.02119110000785,218.02119110000785,218.02119110000785,218.02119110000785,218.02119110000785,218.02119110000785,219.97279450006317,219.97279450006317,219.97279450006317,2,n,0.793227499932982,220.78721009998117,221.28982900001574,221.28982900001574,221.28982900001574,221.28982900001574,221.28982900001574,221.28982900001574,13.04,1,222.30194380006287,,,,,,,,,,,,,,,,,,,,,,,,,,001,2023-02-14_12h13.19.994,CGTriskyDMtask,2022.2.4,59.968972054961114,
,,,,,1,19.28,0.0,8.36,0,,,,,,,0,26,26,13,,,,,,,,,,,,,,,,,,,,,,,,,,,,,,,,,,,,,,,,,,,,223.30635560001247,223.30635560001247,223.30635560001247,223.30635560001247,223.30635560001247,223.30635560001247,223.30635560001247,225.28162839997094,225.28162839997094,225.28162839997094,1,v,0.3956971999723464,225.69669420004357,226.2039840000216,226.2039840000216,226.2039840000216,226.2039840000216,226.2039840000216,226.2039840000216,19.28,1,227.21111799997743,,,,,,,,,,,,,,,,,,,,,,,,,,001,2023-02-14_12h13.19.994,CGTriskyDMtask,2022.2.4,59.968972054961114,
,,,,,1,11.62,0.0,6.19,0,,,,,,,0,27,27,22,,,,,,,,,,,,,,,,,,,,,,,,,,,,,,,,,,,,,,,,,,,,228.2291679000482,228.2291679000482,228.2291679000482,228.2291679000482,228.2291679000482,228.2291679000482,228.2291679000482,230.19108500005677,230.19108500005677,230.19108500005677,1,v,0.6508017000742257,230.872015299974,231.3764983000001,231.3764983000001,231.3764983000001,231.3764983000001,231.3764983000001,231.3764983000001,0.0,1,232.38663289998658,,,,,,,,,,,,,,,,,,,,,,,,,,001,2023-02-14_12h13.19.994,CGTriskyDMtask,2022.2.4,59.968972054961114,
,,,,,1,28.21,0.0,3.89,0,,,,,,,0,28,28,1,,,,,,,,,,,,,,,,,,,,,,,,,,,,,,,,,,,,,,,,,,,,233.38905860006344,233.38905860006344,233.38905860006344,233.38905860006344,233.38905860006344,233.38905860006344,233.38905860006344,235.36644670006353,235.36644670006353,235.36644670006353,1,v,1.336745799984783,236.7297777000349,237.23013739997987,237.23013739997987,237.23013739997987,237.23013739997987,237.23013739997987,237.23013739997987,0.0,1,238.24444040004164,,,,,,,,,,,,,,,,,,,,,,,,,,001,2023-02-14_12h13.19.994,CGTriskyDMtask,2022.2.4,59.968972054961114,
,,,,,2,25.2,0.0,5.4,0,,,,,,,0,29,29,3,,,,,,,,,,,,,,,,,,,,,,,,,,,,,,,,,,,,,,,,,,,,239.25850700004958,239.25850700004958,239.25850700004958,239.25850700004958,239.25850700004958,239.25850700004958,239.25850700004958,241.2243072000565,241.2243072000565,241.2243072000565,2,n,0.9410185000160709,242.18812489998527,242.6885331000667,242.6885331000667,242.6885331000667,242.6885331000667,242.6885331000667,242.6885331000667,0.0,1,243.70282430003863,,,,,,,,,,,,,,,,,,,,,,,,,,001,2023-02-14_12h13.19.994,CGTriskyDMtask,2022.2.4,59.968972054961114,
,,,,,2,11.43,0.0,6.29,0,,,,,,,0,30,30,24,,,,,,,,,,,,,,,,,,,,,,,,,,,,,,,,,,,,,,,,,,,,244.727929100045,244.727929100045,244.727929100045,244.727929100045,244.727929100045,244.727929100045,244.727929100045,246.6828924000729,246.6828924000729,246.6828924000729,2,n,0.46773819997906685,247.18098489998374,247.68791560002137,247.68791560002137,247.68791560002137,247.68791560002137,247.68791560002137,247.68791560002137,11.43,1,248.69538459996693,,,,,,,,,,,,,,,,,,,,,,,,,,001,2023-02-14_12h13.19.994,CGTriskyDMtask,2022.2.4,59.968972054961114,
,,,,,1,13.94,0.0,5.03,0,,,,,,,0,31,31,8,,,,,,,,,,,,,,,,,,,,,,,,,,,,,,,,,,,,,,,,,,,,249.71505810006056,249.71505810006056,249.71505810006056,249.71505810006056,249.71505810006056,249.71505810006056,249.71505810006056,251.67518430005293,251.67518430005293,251.67518430005293,1,v,0.5232823999831453,252.22324910003226,252.72773719998077,252.72773719998077,252.72773719998077,252.72773719998077,252.72773719998077,252.72773719998077,0.0,1,253.73750509996898,,,,,,,,,,,,,,,,,,,,,,,,,,001,2023-02-14_12h13.19.994,CGTriskyDMtask,2022.2.4,59.968972054961114,
,,,,,2,19.86,0.0,8.07,0,,,,,,,0,32,32,11,,,,,,,,,,,,,,,,,,,,,,,,,,,,,,,,,,,,,,,,,,,,254.76717520004604,254.76717520004604,254.76717520004604,254.76717520004604,254.76717520004604,254.76717520004604,254.76717520004604,256.7176678000251,256.7176678000251,256.7176678000251,2,n,0.6922129000304267,257.4325483000139,,257.9496346999658,257.9496346999658,257.9496346999658,257.9496346999658,257.9496346999658,19.86,1,258.94632190000266,,,,,,,,,,,,,,,,,,,,,,,,,,001,2023-02-14_12h13.19.994,CGTriskyDMtask,2022.2.4,59.968972054961114,
,,,,,1,11.84,0.0,6.08,0,,,,,,,0,33,33,20,,,,,,,,,,,,,,,,,,,,,,,,,,,,,,,,,,,,,,,,,,,,259.9684295000043,259.9684295000043,259.9684295000043,259.9684295000043,259.9684295000043,259.9684295000043,259.9684295000043,261.9263951999601,261.9263951999601,261.9263951999601,1,v,0.6220162999816239,262.57423080003355,263.07889070000965,263.07889070000965,263.07889070000965,263.07889070000965,263.07889070000965,263.07889070000965,0.0,1,264.0886550999712,,,,,,,,,,,,,,,,,,,,,,,,,,001,2023-02-14_12h13.19.994,CGTriskyDMtask,2022.2.4,59.968972054961114,
,,,,,2,18.77,0.0,8.61,0,,,,,,,0,34,34,15,,,,,,,,,,,,,,,,,,,,,,,,,,,,,,,,,,,,,,,,,,,,265.0934444000013,265.0934444000013,265.0934444000013,265.0934444000013,265.0934444000013,265.0934444000013,265.0934444000013,267.0686065000482,267.0686065000482,267.0686065000482,2,n,0.6632668999955058,267.750344100059,,268.26663229998667,268.26663229998667,268.26663229998667,268.26663229998667,268.26663229998667,0.0,1,269.2643527999753,,,,,,,,,,,,,,,,,,,,,,,,,,001,2023-02-14_12h13.19.994,CGTriskyDMtask,2022.2.4,59.968972054961114,
,,,,,2,22.97,0.0,6.51,0,,,,,,,0,35,35,5,,,,,,,,,,,,,,,,,,,,,,,,,,,,,,,,,,,,,,,,,,,,270.2684122000355,270.2684122000355,270.2684122000355,270.2684122000355,270.2684122000355,270.2684122000355,270.2684122000355,272.24408640002366,272.24408640002366,272.24408640002366,2,n,0.5768450000323355,272.842248299974,273.3423269999912,273.3423269999912,273.3423269999912,273.3423269999912,273.3423269999912,273.3423269999912,0.0,1,274.3566516999854,,,,,,,,,,,,,,,,,,,,,,,,,,001,2023-02-14_12h13.19.994,CGTriskyDMtask,2022.2.4,59.968972054961114,
,,,,,1,10.55,0.0,6.73,0,,,,,,,0,36,36,32,,,,,,,,,,,,,,,,,,,,,,,,,,,,,,,,,,,,,,,,,,,,275.36101990006864,275.36101990006864,275.36101990006864,275.36101990006864,275.36101990006864,275.36101990006864,275.36101990006864,277.33669240004383,277.33669240004383,277.33669240004383,1,v,1.1155451000668108,278.46704869996756,278.97625990002416,278.97625990002416,278.97625990002416,278.97625990002416,278.97625990002416,278.97625990002416,10.55,1,279.98154000006616,,,,,,,,,,,,,,,,,,,,,,,,,,001,2023-02-14_12h13.19.994,CGTriskyDMtask,2022.2.4,59.968972054961114,
,,,,,1,15.09,0.0,10.46,0,,,,,,,0,37,37,39,,,,,,,,,,,,,,,,,,,,,,,,,,,,,,,,,,,,,,,,,,,,280.986655900022,280.986655900022,280.986655900022,280.986655900022,280.986655900022,280.986655900022,280.986655900022,282.9613096000394,282.9613096000394,282.9613096000394,1,v,0.85635060002096,283.84220109996386,284.34666519996244,284.34666519996244,284.34666519996244,284.34666519996244,284.34666519996244,284.34666519996244,0.0,1,285.35678010003176,,,,,,,,,,,,,,,,,,,,,,,,,,001,2023-02-14_12h13.19.994,CGTriskyDMtask,2022.2.4,59.968972054961114,
,,,,,1,10.35,0.0,0.0,1,,,,,,,0,38,38,40,,,,,,,,,,,,,,,,,,,,,,,,,,,,,,,,,,,,,,,,,,,,286.37224309996236,286.37224309996236,286.37224309996236,286.37224309996236,286.37224309996236,286.37224309996236,286.37224309996236,288.3367489000084,288.3367489000084,288.3367489000084,1,v,1.0129959000041708,289.367062299978,289.8673885000171,289.8673885000171,289.8673885000171,289.8673885000171,289.8673885000171,289.8673885000171,0.0,1,290.88173400005326,,,,,,,,,,,,,,,,,,,,,,,,,,001,2023-02-14_12h13.19.994,CGTriskyDMtask,2022.2.4,59.968972054961114,
,,,,,1,10.68,0.0,10.68,1,,,,,,,0,39,39,48,,,,,,,,,,,,,,,,,,,,,,,,,,,,,,,,,,,,,,,,,,,,291.8989035000559,291.8989035000559,291.8989035000559,291.8989035000559,291.8989035000559,291.8989035000559,291.8989035000559,293.86159370001405,293.86159370001405,293.86159370001405,1,v,0.44637690007220954,294.3265732000582,294.83518369996455,294.83518369996455,294.83518369996455,294.83518369996455,294.83518369996455,294.83518369996455,10.68,1,295.8409110000357,,,,,,,,,,,,,,,,,,,,,,,,,,001,2023-02-14_12h13.19.994,CGTriskyDMtask,2022.2.4,59.968972054961114,
,,,,,2,12.36,0.0,5.82,0,,,,,,,0,40,40,16,,,,,,,,,,,,,,,,,,,,,,,,,,,,,,,,,,,,,,,,,,,,296.8410265999846,296.8410265999846,296.8410265999846,296.8410265999846,296.8410265999846,296.8410265999846,296.8410265999846,298.8207565000048,298.8207565000048,298.8207565000048,2,v,0.44053030002396554,299.285553600057,299.79320069996174,299.79320069996174,299.79320069996174,299.79320069996174,299.79320069996174,299.79320069996174,5.82,0,300.80019380000886,,,,,,,,,,,,,,,,,,,,,,,,,,001,2023-02-14_12h13.19.994,CGTriskyDMtask,2022.2.4,59.968972054961114,
,,,,,2,15.7,0.0,10.15,0,,,,,,,0,41,41,33,,,,,,,,,,,,,,,,,,,,,,,,,,,,,,,,,,,,,,,,,,,,301.8205856999848,301.8205856999848,301.8205856999848,301.8205856999848,301.8205856999848,301.8205856999848,301.8205856999848,303.78014230006374,303.78014230006374,303.78014230006374,2,v,0.4944548000348732,304.2947143999627,304.7954641999677,304.7954641999677,304.7954641999677,304.7954641999677,304.7954641999677,304.7954641999677,10.15,0,305.80932660005055,,,,,,,,,,,,,,,,,,,,,,,,,,001,2023-02-14_12h13.19.994,CGTriskyDMtask,2022.2.4,59.968972054961114,
,,,,,2,17.0,0.0,9.5,0,,,,,,,0,42,42,25,,,,,,,,,,,,,,,,,,,,,,,,,,,,,,,,,,,,,,,,,,,,306.80834810005035,306.80834810005035,306.80834810005035,306.80834810005035,306.80834810005035,306.80834810005035,306.80834810005035,308.78919170005247,308.78919170005247,308.78919170005247,2,v,0.4552409000461921,309.27032670006156,309.7712241000263,309.7712241000263,309.7712241000263,309.7712241000263,309.7712241000263,309.7712241000263,9.5,0,310.78504290001,,,,,,,,,,,,,,,,,,,,,,,,,,001,2023-02-14_12h13.19.994,CGTriskyDMtask,2022.2.4,59.968972054961114,
,,,,,2,16.11,6.99,6.99,1,,,,,,,0,43,43,43,,,,,,,,,,,,,,,,,,,,,,,,,,,,,,,,,,,,,,,,,,,,311.8065473999595,311.8065473999595,311.8065473999595,311.8065473999595,311.8065473999595,311.8065473999595,311.8065473999595,313.7650062000612,313.7650062000612,313.7650062000612,2,v,1.2785099999746308,315.061684000073,315.5767069000285,315.5767069000285,315.5767069000285,315.5767069000285,315.5767069000285,315.5767069000285,6.99,0,316.57644850004,,,,,,,,,,,,,,,,,,,,,,,,,,001,2023-02-14_12h13.19.994,CGTriskyDMtask,2022.2.4,59.968972054961114,
,,,,,1,16.6,0.0,9.7,0,,,,,,,0,44,44,27,,,,,,,,,,,,,,,,,,,,,,,,,,,,,,,,,,,,,,,,,,,,317.58253050001804,317.58253050001804,317.58253050001804,317.58253050001804,317.58253050001804,317.58253050001804,317.58253050001804,319.5561583000235,319.5561583000235,319.5561583000235,1,v,1.2078924999805167,320.78644539997913,321.2930567000294,321.2930567000294,321.2930567000294,321.2930567000294,321.2930567000294,321.2930567000294,0.0,1,322.30097440001555,,,,,,,,,,,,,,,,,,,,,,,,,,001,2023-02-14_12h13.19.994,CGTriskyDMtask,2022.2.4,59.968972054961114,
,,,,,2,0.0,0.0,3.13,1,,,,,,,0,45,45,47,,,,,,,,,,,,,,,,,,,,,,,,,,,,,,,,,,,,,,,,,,,,323.3002257000189,323.3002257000189,323.3002257000189,323.3002257000189,323.3002257000189,323.3002257000189,323.3002257000189,325.28055050002877,325.28055050002877,325.28055050002877,2,v,1.4282335999887437,326.72766690002754,327.22733000002336,327.22733000002336,327.22733000002336,327.22733000002336,327.22733000002336,327.22733000002336,3.13,0,328.2420801999979,,,,,,,,,,,,,,,,,,,,,,,,,,001,2023-02-14_12h13.19.994,CGTriskyDMtask,2022.2.4,59.968972054961114,
,,,,,1,20.53,0.0,7.73,0,,,,,,,0,46,46,9,,,,,,,,,,,,,,,,,,,,,,,,,,,,,,,,,,,,,,,,,,,,329.2458775000414,329.2458775000414,329.2458775000414,329.2458775000414,329.2458775000414,329.2458775000414,329.2458775000414,331.22199660004117,331.22199660004117,331.22199660004117,1,v,0.5999004000332206,331.8534420999931,332.35725230001844,332.35725230001844,332.35725230001844,332.35725230001844,332.35725230001844,332.35725230001844,0.0,1,333.3675893000327,,,,,,,,,,,,,,,,,,,,,,,,,,001,2023-02-14_12h13.19.994,CGTriskyDMtask,2022.2.4,59.968972054961114,
,,,,,2,15.47,0.0,10.27,0,,,,,,,0,47,47,35,,,,,,,,,,,,,,,,,,,,,,,,,,,,,,,,,,,,,,,,,,,,334.37170809996314,334.37170809996314,334.37170809996314,334.37170809996314,334.37170809996314,334.37170809996314,334.37170809996314,336.34802819998004,336.34802819998004,336.34802819998004,2,v,1.236693299957551,337.6109098000452,338.1125070999842,338.1125070999842,338.1125070999842,338.1125070999842,338.1125070999842,338.1125070999842,10.27,0,339.1255773999728,,,,,,,,,,,,,,,,,,,,,,,,,,001,2023-02-14_12h13.19.994,CGTriskyDMtask,2022.2.4,59.968972054961114,
,,,,,2,15.27,0.0,10.37,0,,,,,,,0,48,48,37,,,,,,,,,,,,,,,,,,,,,,,,,,,,,,,,,,,,,,,,,,,,340.1291332000401,340.1291332000401,340.1291332000401,340.1291332000401,340.1291332000401,340.1291332000401,340.1291332000401,342.10522390005644,342.10522390005644,342.10522390005644,2,n,0.46040219999849796,342.5871616000077,,343.10352270002477,343.10352270002477,343.10352270002477,343.10352270002477,343.10352270002477,15.27,1,344.10123789997306,,,,,,,,,,,,,,,,,,,,,,,,,,001,2023-02-14_12h13.19.994,CGTriskyDMtask,2022.2.4,59.968972054961114,
,,,,,,,,,,,,,,,,,,,,,,,,,,,,,,,,,,,,,,,,,,,,,,,,,,,,,,,,,,,,,,,,,,,,,,,,,,,,,,,,,,,,,,,,,../CGE/bespoke_choicesets/bespoke_choiceset_rhoInd200_muInd025.csv,347.35900030005723,351.3738293000497,../CGE/bespoke_choicesets/bespoke_choiceset_rhoInd200_muInd025.csv,200,25,351.3738293000497,9.029998909682035e-05,353.3875139000593,353.3875139000593,return,2.214059399906546,,,,,,,,,,,001,2023-02-14_12h13.19.994,CGTriskyDMtask,2022.2.4,59.968972054961114,
,,,,,2,8.65217691860162,0,6.35490192734869,,0.471734086947521,1,,,,,,,,,0,0,0,0,,,,,,,,,,,,,,,,,,,,,,,,,,,,,,,,,,,,,,,,355.6615698999958,355.6615698999958,355.6615698999958,355.6615698999958,355.6615698999958,355.6615698999958,355.6615698999958,357.6320884000743,357.6320884000743,357.6320884000743,2,n,0.7087905000662431,358.36327800003346,358.86799479997717,358.86799479997717,358.86799479997717,358.86799479997717,358.86799479997717,358.86799479997717,0,1,359.87818560004234,,,,,,,,,,,,,,,,,,,,,,,,,,001,2023-02-14_12h13.19.994,CGTriskyDMtask,2022.2.4,59.968972054961114,
,,,,,2,9.24641500723083,0,7.94164673971245,,0.0323694741180763,0,,,,,,,,,0,1,1,1,,,,,,,,,,,,,,,,,,,,,,,,,,,,,,,,,,,,,,,,360.8801248000236,360.8801248000236,360.8801248000236,360.8801248000236,360.8801248000236,360.8801248000236,360.8801248000236,362.8576827000361,362.8576827000361,362.8576827000361,2,v,0.4893355000531301,363.3723750000354,363.8793463000329,363.8793463000329,363.8793463000329,363.8793463000329,363.8793463000329,363.8793463000329,7.94164673971245,0,364.88689449999947,,,,,,,,,,,,,,,,,,,,,,,,,,001,2023-02-14_12h13.19.994,CGTriskyDMtask,2022.2.4,59.968972054961114,
,,,,,1,11.4207493480528,0,8.3679081381415,,0.482424168555714,1,,,,,,,,,0,2,2,2,,,,,,,,,,,,,,,,,,,,,,,,,,,,,,,,,,,,,,,,365.9042558000656,365.9042558000656,365.9042558000656,365.9042558000656,365.9042558000656,365.9042558000656,365.9042558000656,367.86676250002347,367.86676250002347,367.86676250002347,1,v,0.48363740008790046,368.3812889000401,368.8829250000417,368.8829250000417,368.8829250000417,368.8829250000417,368.8829250000417,368.8829250000417,11.4207493480528,1,369.895859100041,,,,,,,,,,,,,,,,,,,,,,,,,,001,2023-02-14_12h13.19.994,CGTriskyDMtask,2022.2.4,59.968972054961114,
,,,,,1,16.0152188400622,0,11.6169629014796,,0.525836604933992,1,,,,,,,,,0,3,3,3,,,,,,,,,,,,,,,,,,,,,,,,,,,,,,,,,,,,,,,,370.90033430000767,370.90033430000767,370.90033430000767,370.90033430000767,370.90033430000767,370.90033430000767,370.90033430000767,372.8756016000407,372.8756016000407,372.8756016000407,1,n,0.46776820009108633,373.37374890001956,373.876861799974,373.876861799974,373.876861799974,373.876861799974,373.876861799974,373.876861799974,11.6169629014796,0,374.888046600041,,,,,,,,,,,,,,,,,,,,,,,,,,001,2023-02-14_12h13.19.994,CGTriskyDMtask,2022.2.4,59.968972054961114,
,,,,,2,3.30673734693555,0,2.42833621538011,,0.47248417899549,1,,,,,,,,,0,4,4,4,,,,,,,,,,,,,,,,,,,,,,,,,,,,,,,,,,,,,,,,375.8925890000537,375.8925890000537,375.8925890000537,375.8925890000537,375.8925890000537,375.8925890000537,375.8925890000537,377.8682465000311,377.8682465000311,377.8682465000311,2,n,0.42509230005089194,378.31658260000404,378.81720659998246,378.81720659998246,378.81720659998246,378.81720659998246,378.81720659998246,378.81720659998246,3.30673734693555,1,379.83096519997343,,,,,,,,,,,,,,,,,,,,,,,,,,001,2023-02-14_12h13.19.994,CGTriskyDMtask,2022.2.4,59.968972054961114,
,,,,,1,14.1927360058762,0,10.2688307283213,,0.536644481453688,1,,,,,,,,,0,5,5,5,,,,,,,,,,,,,,,,,,,,,,,,,,,,,,,,,,,,,,,,380.83478759997524,380.83478759997524,380.83478759997524,380.83478759997524,380.83478759997524,380.83478759997524,380.83478759997524,382.8109061999712,382.8109061999712,382.8109061999712,1,v,0.6043608000036329,383.44191010005306,383.95029060007073,383.95029060007073,383.95029060007073,383.95029060007073,383.95029060007073,383.95029060007073,14.1927360058762,1,384.9565117000602,,,,,,,,,,,,,,,,,,,,,,,,,,001,2023-02-14_12h13.19.994,CGTriskyDMtask,2022.2.4,59.968972054961114,
,,,,,2,6.05972685752204,0,9.3663328011753,,2.94093693371321e-06,0,,,,,,,,,0,6,6,6,,,,,,,,,,,,,,,,,,,,,,,,,,,,,,,,,,,,,,,,385.96045020001475,385.96045020001475,385.96045020001475,385.96045020001475,385.96045020001475,385.96045020001475,385.96045020001475,387.9364785000216,387.9364785000216,387.9364785000216,2,n,0.4760552999796346,388.4342926000245,388.9456130999606,388.9456130999606,388.9456130999606,388.9456130999606,388.9456130999606,388.9456130999606,6.05972685752204,1,389.9489215000067,,,,,,,,,,,,,,,,,,,,,,,,,,001,2023-02-14_12h13.19.994,CGTriskyDMtask,2022.2.4,59.968972054961114,
,,,,,2,18.3788868633215,0,9.53525710054673,,0.984626808043504,0,,,,,,,,,0,7,7,7,,,,,,,,,,,,,,,,,,,,,,,,,,,,,,,,,,,,,,,,390.9647446000017,390.9647446000017,390.9647446000017,390.9647446000017,390.9647446000017,390.9647446000017,390.9647446000017,392.9290172000183,392.9290172000183,392.9290172000183,2,v,0.5993760999990627,393.5434290000703,394.0506621999666,394.0506621999666,394.0506621999666,394.0506621999666,394.0506621999666,394.0506621999666,9.53525710054673,0,395.05791520001367,,,,,,,,,,,,,,,,,,,,,,,,,,001,2023-02-14_12h13.19.994,CGTriskyDMtask,2022.2.4,59.968972054961114,
,,,,,1,7.93242100846255,0,5.84374793946045,,0.458573109354986,1,,,,,,,,,0,8,8,8,,,,,,,,,,,,,,,,,,,,,,,,,,,,,,,,,,,,,,,,396.08577979996335,396.08577979996335,396.08577979996335,396.08577979996335,396.08577979996335,396.08577979996335,396.08577979996335,398.03790460003074,398.03790460003074,398.03790460003074,1,v,0.38431889994535595,398.45275260007475,398.95895940007176,398.95895940007176,398.95895940007176,398.95895940007176,398.95895940007176,398.95895940007176,7.93242100846255,1,399.9672768000746,,,,,,,,,,,,,,,,,,,,,,,,,,001,2023-02-14_12h13.19.994,CGTriskyDMtask,2022.2.4,59.968972054961114,
,,,,,1,5.89637411580188,0,8.33873158615315,,5.64999992590303e-06,0,,,,,,,,,0,9,9,9,,,,,,,,,,,,,,,,,,,,,,,,,,,,,,,,,,,,,,,,400.9951656999765,400.9951656999765,400.9951656999765,400.9951656999765,400.9951656999765,400.9951656999765,400.9951656999765,402.9470442000311,402.9470442000311,402.9470442000311,1,v,0.4542619999265298,403.42845640005544,403.9392027000431,403.9392027000431,403.9392027000431,403.9392027000431,403.9392027000431,403.9392027000431,5.89637411580188,1,404.94305500003975,,,,,,,,,,,,,,,,,,,,,,,,,,001,2023-02-14_12h13.19.994,CGTriskyDMtask,2022.2.4,59.968972054961114,
,,,,,2,4.1426892636111,0,2.39609613027424,,0.959087129093,0,,,,,,,,,0,10,10,10,,,,,,,,,,,,,,,,,,,,,,,,,,,,,,,,,,,,,,,,405.96397430007346,405.96397430007346,405.96397430007346,405.96397430007346,405.96397430007346,405.96397430007346,405.96397430007346,407.9229602999985,407.9229602999985,407.9229602999985,2,n,0.3671170000452548,408.32118660002016,408.82126290001906,408.82126290001906,408.82126290001906,408.82126290001906,408.82126290001906,408.82126290001906,4.1426892636111,1,409.83577330003027,,,,,,,,,,,,,,,,,,,,,,,,,,001,2023-02-14_12h13.19.994,CGTriskyDMtask,2022.2.4,59.968972054961114,
,,,,,1,0.154315828438848,0,11.1210462756804,,1.43152517557028e-07,0,,,,,,,,,0,11,11,11,,,,,,,,,,,,,,,,,,,,,,,,,,,,,,,,,,,,,,,,410.84080400003586,410.84080400003586,410.84080400003586,410.84080400003586,410.84080400003586,410.84080400003586,410.84080400003586,412.8155507000629,412.8155507000629,412.8155507000629,1,n,0.7383372999029234,413.57980299997143,414.08813809999265,414.08813809999265,414.08813809999265,414.08813809999265,414.08813809999265,414.08813809999265,11.1210462756804,0,415.09451750002336,,,,,,,,,,,,,,,,,,,,,,,,,,001,2023-02-14_12h13.19.994,CGTriskyDMtask,2022.2.4,59.968972054961114,
,,,,,1,11.7905035250587,0,8.50577260683058,,0.548984045004141,1,,,,,,,,,0,12,12,12,,,,,,,,,,,,,,,,,,,,,,,,,,,,,,,,,,,,,,,,416.0994448000565,416.0994448000565,416.0994448000565,416.0994448000565,416.0994448000565,416.0994448000565,416.0994448000565,418.07434769999236,418.07434769999236,418.07434769999236,1,v,0.713110699900426,418.8053685000632,419.3072412000038,419.3072412000038,419.3072412000038,419.3072412000038,419.3072412000038,419.3072412000038,11.7905035250587,1,420.31994079996366,,,,,,,,,,,,,,,,,,,,,,,,,,001,2023-02-14_12h13.19.994,CGTriskyDMtask,2022.2.4,59.968972054961114,
,,,,,2,20.1148528746911,0,6.12167303924216,,0.998806148475277,0,,,,,,,,,0,13,13,13,,,,,,,,,,,,,,,,,,,,,,,,,,,,,,,,,,,,,,,,421.32710760005284,421.32710760005284,421.32710760005284,421.32710760005284,421.32710760005284,421.32710760005284,421.32710760005284,423.29951829998754,423.29951829998754,423.29951829998754,2,n,0.44003329996485263,423.76432890002616,424.2650738999946,424.2650738999946,424.2650738999946,424.2650738999946,424.2650738999946,424.2650738999946,20.1148528746911,1,425.27927110006567,,,,,,,,,,,,,,,,,,,,,,,,,,001,2023-02-14_12h13.19.994,CGTriskyDMtask,2022.2.4,59.968972054961114,
,,,,,2,28.5408943848917,0,7.93175751494709,,0.999030544549413,0,,,,,,,,,0,14,14,14,,,,,,,,,,,,,,,,,,,,,,,,,,,,,,,,,,,,,,,,426.28423870005645,426.28423870005645,426.28423870005645,426.28423870005645,426.28423870005645,426.28423870005645,426.28423870005645,428.258895499981,428.258895499981,428.258895499981,2,n,0.373680799966678,428.6571927999612,429.15818540006876,429.15818540006876,429.15818540006876,429.15818540006876,429.15818540006876,429.15818540006876,28.5408943848917,1,430.1716876999708,,,,,,,,,,,,,,,,,,,,,,,,,,001,2023-02-14_12h13.19.994,CGTriskyDMtask,2022.2.4,59.968972054961114,
,,,,,2,15.6813733756659,0,11.4734857797157,,0.488561424090415,1,,,,,,,,,0,15,15,15,,,,,,,,,,,,,,,,,,,,,,,,,,,,,,,,,,,,,,,,431.1923437999794,431.1923437999794,431.1923437999794,431.1923437999794,431.1923437999794,431.1923437999794,431.1923437999794,433.15152600000147,433.15152600000147,433.15152600000147,2,v,0.33767909999005497,433.5163173000328,434.0263800000539,434.0263800000539,434.0263800000539,434.0263800000539,434.0263800000539,434.0263800000539,11.4734857797157,0,435.0310555000324,,,,,,,,,,,,,,,,,,,,,,,,,,001,2023-02-14_12h13.19.994,CGTriskyDMtask,2022.2.4,59.968972054961114,
,,,,,2,5.76997879793635,0,9.73003550942522,,1.73600165023339e-06,0,,,,,,,,,0,16,16,16,,,,,,,,,,,,,,,,,,,,,,,,,,,,,,,,,,,,,,,,436.04903580003884,436.04903580003884,436.04903580003884,436.04903580003884,436.04903580003884,436.04903580003884,436.04903580003884,438.0109543000581,438.0109543000581,438.0109543000581,2,v,0.6595205999910831,438.69230620004237,439.2011871000286,439.2011871000286,439.2011871000286,439.2011871000286,439.2011871000286,439.2011871000286,9.73003550942522,0,440.2065821000142,,,,,,,,,,,,,,,,,,,,,,,,,,001,2023-02-14_12h13.19.994,CGTriskyDMtask,2022.2.4,59.968972054961114,
,,,,,1,5.24907842762768,0,3.84683184034657,,0.48144014623058,1,,,,,,,,,0,17,17,17,,,,,,,,,,,,,,,,,,,,,,,,,,,,,,,,,,,,,,,,441.2291084000608,441.2291084000608,441.2291084000608,441.2291084000608,441.2291084000608,441.2291084000608,441.2291084000608,443.18654550006613,443.18654550006613,443.18654550006613,1,v,0.30526390008162707,443.5178739000112,444.0228494000621,444.0228494000621,444.0228494000621,444.0228494000621,444.0228494000621,444.0228494000621,0,1,445.03264440002386,,,,,,,,,,,,,,,,,,,,,,,,,,001,2023-02-14_12h13.19.994,CGTriskyDMtask,2022.2.4,59.968972054961114,
,,,,,2,1.11090001848061,0,8.54804939946625,,1.56296933698723e-07,0,,,,,,,,,0,18,18,18,,,,,,,,,,,,,,,,,,,,,,,,,,,,,,,,,,,,,,,,446.0374834999675,446.0374834999675,446.0374834999675,446.0374834999675,446.0374834999675,446.0374834999675,446.0374834999675,448.0125049999915,448.0125049999915,448.0125049999915,2,v,0.43392899993341416,448.47710180003196,448.9798858000431,448.9798858000431,448.9798858000431,448.9798858000431,448.9798858000431,448.9798858000431,8.54804939946625,0,449.9917585999938,,,,,,,,,,,,,,,,,,,,,,,,,,001,2023-02-14_12h13.19.994,CGTriskyDMtask,2022.2.4,59.968972054961114,
,,,,,2,5.5901467294665,0,11.0852185590193,,8.2120760629628e-07,0,,,,,,,,,0,19,19,19,,,,,,,,,,,,,,,,,,,,,,,,,,,,,,,,,,,,,,,,451.01112070004456,451.01112070004456,451.01112070004456,451.01112070004456,451.01112070004456,451.01112070004456,451.01112070004456,452.9718565000221,452.9718565000221,452.9718565000221,2,v,0.6035709000425413,453.6028352000285,454.1089726999635,454.1089726999635,454.1089726999635,454.1089726999635,454.1089726999635,454.1089726999635,11.0852185590193,0,455.1174558000639,,,,,,,,,,,,,,,,,,,,,,,,,,001,2023-02-14_12h13.19.994,CGTriskyDMtask,2022.2.4,59.968972054961114,
,,,,,1,6.91071997397812,0,7.17388075479539,,0.0002030252470094,0,,,,,,,,,0,20,20,20,,,,,,,,,,,,,,,,,,,,,,,,,,,,,,,,,,,,,,,,456.1219812000636,456.1219812000636,456.1219812000636,456.1219812000636,456.1219812000636,456.1219812000636,456.1219812000636,458.0972676000092,458.0972676000092,458.0972676000092,1,n,0.3901200999971479,458.5121825999813,459.0137727999827,459.0137727999827,459.0137727999827,459.0137727999827,459.0137727999827,459.0137727999827,7.17388075479539,0,460.02650709997397,,,,,,,,,,,,,,,,,,,,,,,,,,001,2023-02-14_12h13.19.994,CGTriskyDMtask,2022.2.4,59.968972054961114,
,,,,,1,28.6658663382172,0,8.2976028063451,,0.998941134637871,0,,,,,,,,,0,21,21,21,,,,,,,,,,,,,,,,,,,,,,,,,,,,,,,,,,,,,,,,461.03032110002823,461.03032110002823,461.03032110002823,461.03032110002823,461.03032110002823,461.03032110002823,461.03032110002823,463.0065115999896,463.0065115999896,463.0065115999896,1,v,0.39619570004288107,463.4214988000458,463.9285898000235,463.9285898000235,463.9285898000235,463.9285898000235,463.9285898000235,463.9285898000235,28.6658663382172,1,464.9359293000307,,,,,,,,,,,,,,,,,,,,,,,,,,001,2023-02-14_12h13.19.994,CGTriskyDMtask,2022.2.4,59.968972054961114,
,,,,,1,10.1509086449165,0,8.60305266339565,,0.0442903141849009,0,,,,,,,,,0,22,22,22,,,,,,,,,,,,,,,,,,,,,,,,,,,,,,,,,,,,,,,,465.9416934000328,465.9416934000328,465.9416934000328,465.9416934000328,465.9416934000328,465.9416934000328,465.9416934000328,467.91579800006,467.91579800006,467.91579800006,1,n,0.3608817000640556,468.29776570003014,,468.8139758000616,468.8139758000616,468.8139758000616,468.8139758000616,468.8139758000616,8.60305266339565,0,469.8119480999885,,,,,,,,,,,,,,,,,,,,,,,,,,001,2023-02-14_12h13.19.994,CGTriskyDMtask,2022.2.4,59.968972054961114,
,,,,,1,3.41335477543762,0,8.02183746779338,,4.76215270482994e-07,0,,,,,,,,,0,23,23,23,,,,,,,,,,,,,,,,,,,,,,,,,,,,,,,,,,,,,,,,470.81421079998836,470.81421079998836,470.81421079998836,470.81421079998836,470.81421079998836,470.81421079998836,470.81421079998836,472.791624500067,472.791624500067,472.791624500067,1,v,0.7033540999982506,473.5228953000624,474.02666159998626,474.02666159998626,474.02666159998626,474.02666159998626,474.02666159998626,474.02666159998626,0,1,475.0373933999799,,,,,,,,,,,,,,,,,,,,,,,,,,001,2023-02-14_12h13.19.994,CGTriskyDMtask,2022.2.4,59.968972054961114,
,,,,,1,13.4344542073784,0,9.75583722773008,,0.521066848331137,1,,,,,,,,,0,24,24,24,,,,,,,,,,,,,,,,,,,,,,,,,,,,,,,,,,,,,,,,476.0563283000374,476.0563283000374,476.0563283000374,476.0563283000374,476.0563283000374,476.0563283000374,476.0563283000374,478.0172717999667,478.0172717999667,478.0172717999667,1,n,0.3619598000077531,478.39874630002305,478.9049695000285,478.9049695000285,478.9049695000285,478.9049695000285,478.9049695000285,478.9049695000285,9.75583722773008,0,479.91329890000634,,,,,,,,,,,,,,,,,,,,,,,,,,001,2023-02-14_12h13.19.994,CGTriskyDMtask,2022.2.4,59.968972054961114,
,,,,,1,23.4991568200407,0,7.25845313468017,,0.998759784443631,0,,,,,,,,,0,25,25,25,,,,,,,,,,,,,,,,,,,,,,,,,,,,,,,,,,,,,,,,480.94129230000544,480.94129230000544,480.94129230000544,480.94129230000544,480.94129230000544,480.94129230000544,480.94129230000544,482.8931889999658,482.8931889999658,482.8931889999658,1,v,0.41899449995253235,483.34139419998974,483.8430041000247,483.8430041000247,483.8430041000247,483.8430041000247,483.8430041000247,483.8430041000247,23.4991568200407,1,484.8559401000384,,,,,,,,,,,,,,,,,,,,,,,,,,001,2023-02-14_12h13.19.994,CGTriskyDMtask,2022.2.4,59.968972054961114,
,,,,,2,13.5927493422991,0,10.0220288573066,,0.454902398924489,1,,,,,,,,,0,26,26,26,,,,,,,,,,,,,,,,,,,,,,,,,,,,,,,,,,,,,,,,485.87204489996657,485.87204489996657,485.87204489996657,485.87204489996657,485.87204489996657,485.87204489996657,485.87204489996657,487.8357414000202,487.8357414000202,487.8357414000202,2,n,0.3494098000228405,488.2007711000042,488.70514059998095,488.70514059998095,488.70514059998095,488.70514059998095,488.70514059998095,488.70514059998095,0,1,489.71527230006177,,,,,,,,,,,,,,,,,,,,,,,,,,001,2023-02-14_12h13.19.994,CGTriskyDMtask,2022.2.4,59.968972054961114,
,,,,,2,6.37539714979939,0,4.69861744318623,,0.456780394539042,1,,,,,,,,,0,27,27,27,,,,,,,,,,,,,,,,,,,,,,,,,,,,,,,,,,,,,,,,490.7442161999643,490.7442161999643,490.7442161999643,490.7442161999643,490.7442161999643,490.7442161999643,490.7442161999643,492.69526870001573,492.69526870001573,492.69526870001573,2,None,,494.70762390003074,,495.2113685000222,495.2113685000222,495.2113685000222,495.2113685000222,495.2113685000222,nan,nan,496.2053451000247,,,,,,,,,,,,,,,,,,,,,,,,,,001,2023-02-14_12h13.19.994,CGTriskyDMtask,2022.2.4,59.968972054961114,
,,,,,1,2.35946182723856,0,7.82482565229293,,2.51387274321756e-07,0,,,,,,,,,0,28,28,28,,,,,,,,,,,,,,,,,,,,,,,,,,,,,,,,,,,,,,,,497.2340528999921,497.2340528999921,497.2340528999921,497.2340528999921,497.2340528999921,497.2340528999921,497.2340528999921,499.2019454999827,499.2019454999827,499.2019454999827,1,None,,501.2145481000189,,501.71398860006593,501.71398860006593,501.71398860006593,501.71398860006593,501.71398860006593,nan,nan,502.7122886000434,,,,,,,,,,,,,,,,,,,,,,,,,,001,2023-02-14_12h13.19.994,CGTriskyDMtask,2022.2.4,59.968972054961114,
,,,,,2,2.28336028513731,0,2.0042850412312,,0.0188815931670812,0,,,,,,,,,0,29,29,29,,,,,,,,,,,,,,,,,,,,,,,,,,,,,,,,,,,,,,,,503.7363801000174,503.7363801000174,503.7363801000174,503.7363801000174,503.7363801000174,503.7363801000174,503.7363801000174,505.695276799961,505.695276799961,505.695276799961,2,None,,507.7044130000286,508.203858199995,508.203858199995,508.203858199995,508.203858199995,508.203858199995,508.203858199995,nan,nan,509.21908030007035,,,,,,,,,,,,,,,,,,,,,,,,,,001,2023-02-14_12h13.19.994,CGTriskyDMtask,2022.2.4,59.968972054961114,
,,,,,1,3.09632408034522,0,4.67793050850741,,3.43616876258068e-06,0,,,,,,,,,0,30,30,30,,,,,,,,,,,,,,,,,,,,,,,,,,,,,,,,,,,,,,,,510.2386058999691,510.2386058999691,510.2386058999691,510.2386058999691,510.2386058999691,510.2386058999691,510.2386058999691,512.199083100073,512.199083100073,512.199083100073,1,None,,514.2114477000432,,514.7111417000415,514.7111417000415,514.7111417000415,514.7111417000415,514.7111417000415,nan,nan,515.7095157000003,,,,,,,,,,,,,,,,,,,,,,,,,,001,2023-02-14_12h13.19.994,CGTriskyDMtask,2022.2.4,59.968972054961114,
,,,,,1,11.4733395566815,0,8.33191793084843,,0.520962199918148,1,,,,,,,,,0,31,31,31,,,,,,,,,,,,,,,,,,,,,,,,,,,,,,,,,,,,,,,,516.7318694000132,516.7318694000132,516.7318694000132,516.7318694000132,516.7318694000132,516.7318694000132,516.7318694000132,518.6893695000326,518.6893695000326,518.6893695000326,1,None,,520.7185595000628,,521.2178989000386,521.2178989000386,521.2178989000386,521.2178989000386,521.2178989000386,nan,nan,522.2162898000097,520.7028656000039,520.7028656000039,520.7028656000039,,,,,,,,,,,,,,,,,,,,,,,001,2023-02-14_12h13.19.994,CGTriskyDMtask,2022.2.4,59.968972054961114,
,,,,,2,13.6291334860143,0,9.93158174313139,,0.506157390619672,1,,,,,,,,,0,32,32,32,,,,,,,,,,,,,,,,,,,,,,,,,,,,,,,,,,,,,,,,523.236153600039,523.236153600039,523.236153600039,523.236153600039,523.236153600039,523.236153600039,523.236153600039,525.1961639999645,525.1961639999645,525.1961639999645,2,None,,527.208673199988,,527.7082906999858,527.7082906999858,527.7082906999858,527.7082906999858,527.7082906999858,nan,nan,528.7065814000089,,,,,,,,,,,,,,,,,,,,,,,,,,001,2023-02-14_12h13.19.994,CGTriskyDMtask,2022.2.4,59.968972054961114,
,,,,,1,11.773815181281,0,8.64086062003626,,0.475200199335364,1,,,,,,,,,0,33,33,33,,,,,,,,,,,,,,,,,,,,,,,,,,,,,,,,,,,,,,,,529.7265808000229,529.7265808000229,529.7265808000229,529.7265808000229,529.7265808000229,529.7265808000229,529.7265808000229,531.7029533999739,531.7029533999739,531.7029533999739,1,v,1.0675101999659091,532.800084699993,533.3143833000213,533.3143833000213,533.3143833000213,533.3143833000213,533.3143833000213,533.3143833000213,11.773815181281,1,534.31467230001,,,,,,,,,,,,,,,,,,,,,,,,,,001,2023-02-14_12h13.19.994,CGTriskyDMtask,2022.2.4,59.968972054961114,
,,,,,2,28.7351834877161,0,7.60652901638532,,0.99911888749481,0,,,,,,,,,0,34,34,34,,,,,,,,,,,,,,,,,,,,,,,,,,,,,,,,,,,,,,,,535.3171060000313,535.3171060000313,535.3171060000313,535.3171060000313,535.3171060000313,535.3171060000313,535.3171060000313,537.2945147000719,537.2945147000719,537.2945147000719,2,n,0.4655209999764338,537.7758811999811,538.2807649000315,538.2807649000315,538.2807649000315,538.2807649000315,538.2807649000315,538.2807649000315,0,1,539.2904958999716,,,,,,,,,,,,,,,,,,,,,,,,,,001,2023-02-14_12h13.19.994,CGTriskyDMtask,2022.2.4,59.968972054961114,
,,,,,2,4.30984059380135,0,10.1421643796726,,4.74546676273067e-07,0,,,,,,,,,0,35,35,35,,,,,,,,,,,,,,,,,,,,,,,,,,,,,,,,,,,,,,,,540.3024153000442,540.3024153000442,540.3024153000442,540.3024153000442,540.3024153000442,540.3024153000442,540.3024153000442,542.2704144000309,542.2704144000309,542.2704144000309,2,n,0.47944019990973175,542.7682394000003,543.2685836000601,543.2685836000601,543.2685836000601,543.2685836000601,543.2685836000601,543.2685836000601,0,1,544.2830045999726,,,,,,,,,,,,,,,,,,,,,,,,,,001,2023-02-14_12h13.19.994,CGTriskyDMtask,2022.2.4,59.968972054961114,
,,,,,1,8.38158497606637,0,0.377733479696326,,0.999615345177261,0,,,,,,,,,0,36,36,36,,,,,,,,,,,,,,,,,,,,,,,,,,,,,,,,,,,,,,,,545.2853732999647,545.2853732999647,545.2853732999647,545.2853732999647,545.2853732999647,545.2853732999647,545.2853732999647,547.26280580007,547.26280580007,547.26280580007,1,v,0.4192734999815002,547.7107162000611,548.2153094999958,548.2153094999958,548.2153094999958,548.2153094999958,548.2153094999958,548.2153094999958,8.38158497606637,1,549.2255497999722,,,,,,,,,,,,,,,,,,,,,,,,,,001,2023-02-14_12h13.19.994,CGTriskyDMtask,2022.2.4,59.968972054961114,
,,,,,2,6.78897315465147,0,10.0003169693053,,4.12257819601382e-06,0,,,,,,,,,0,37,37,37,,,,,,,,,,,,,,,,,,,,,,,,,,,,,,,,,,,,,,,,550.2248288000701,550.2248288000701,550.2248288000701,550.2248288000701,550.2248288000701,550.2248288000701,550.2248288000701,552.205391400028,552.205391400028,552.205391400028,2,n,0.5407550999661908,552.7702352000633,553.2718303999864,553.2718303999864,553.2718303999864,553.2718303999864,553.2718303999864,553.2718303999864,6.78897315465147,1,554.2845949999755,,,,,,,,,,,,,,,,,,,,,,,,,,001,2023-02-14_12h13.19.994,CGTriskyDMtask,2022.2.4,59.968972054961114,
,,,,,1,9.53674182795221,0,6.90359250047477,,0.534497178205065,1,,,,,,,,,0,38,38,38,,,,,,,,,,,,,,,,,,,,,,,,,,,,,,,,,,,,,,,,555.30113789998,555.30113789998,555.30113789998,555.30113789998,555.30113789998,555.30113789998,555.30113789998,557.2644387000473,557.2644387000473,557.2644387000473,1,None,,559.2769558000145,,559.7823924999684,559.7823924999684,559.7823924999684,559.7823924999684,559.7823924999684,nan,nan,560.7748937000288,,,,,,,,,,,,,,,,,,,,,,,,,,001,2023-02-14_12h13.19.994,CGTriskyDMtask,2022.2.4,59.968972054961114,
,,,,,1,11.4837368602864,0,3.20515538055915,,0.999021848476369,0,,,,,,,,,0,39,39,39,,,,,,,,,,,,,,,,,,,,,,,,,,,,,,,,,,,,,,,,561.793655800051,561.793655800051,561.793655800051,561.793655800051,561.793655800051,561.793655800051,561.793655800051,563.7547466000542,563.7547466000542,563.7547466000542,1,v,0.36845929990522563,564.152799100033,564.6576603000285,564.6576603000285,564.6576603000285,564.6576603000285,564.6576603000285,564.6576603000285,0,1,565.6672241999768,,,,,,,,,,,,,,,,,,,,,,,,,,001,2023-02-14_12h13.19.994,CGTriskyDMtask,2022.2.4,59.968972054961114,
,,,,,2,0.832834249315783,0,0.610041812923737,,0.483643466175363,1,,,,,,,,,0,40,40,40,,,,,,,,,,,,,,,,,,,,,,,,,,,,,,,,,,,,,,,,566.6718695000745,566.6718695000745,566.6718695000745,566.6718695000745,566.6718695000745,566.6718695000745,566.6718695000745,568.6473328999709,568.6473328999709,568.6473328999709,2,None,,570.6596344000427,,571.167896799976,571.167896799976,571.167896799976,571.167896799976,571.167896799976,nan,nan,572.1572027000366,,,,,,,,,,,,,,,,,,,,,,,,,,001,2023-02-14_12h13.19.994,CGTriskyDMtask,2022.2.4,59.968972054961114,
,,,,,2,7.68022617655806,0,5.64727195824962,,0.466875182284583,1,,,,,,,,,0,41,41,41,,,,,,,,,,,,,,,,,,,,,,,,,,,,,,,,,,,,,,,,573.1567029000726,573.1567029000726,573.1567029000726,573.1567029000726,573.1567029000726,573.1567029000726,573.1567029000726,575.137646600022,575.137646600022,575.137646600022,2,None,,577.1667103000218,,577.6661520999623,577.6661520999623,577.6661520999623,577.6661520999623,577.6661520999623,nan,nan,578.6645245000254,577.1510450000642,577.1510450000642,577.1510450000642,,,,,,,,,,,,,,,,,,,,,,,001,2023-02-14_12h13.19.994,CGTriskyDMtask,2022.2.4,59.968972054961114,
,,,,,1,16.5285449197283,0,11.960610730527,,0.536022241408782,1,,,,,,,,,0,42,42,42,,,,,,,,,,,,,,,,,,,,,,,,,,,,,,,,,,,,,,,,579.6701354000252,579.6701354000252,579.6701354000252,579.6701354000252,579.6701354000252,579.6701354000252,579.6701354000252,581.6441301000305,581.6441301000305,581.6441301000305,1,v,1.248666699975729,582.9077189000091,583.4088240000419,583.4088240000419,583.4088240000419,583.4088240000419,583.4088240000419,583.4088240000419,16.5285449197283,1,584.422585900058,,,,,,,,,,,,,,,,,,,,,,,,,,001,2023-02-14_12h13.19.994,CGTriskyDMtask,2022.2.4,59.968972054961114,
,,,,,1,0.930069174407981,0,0.683243301440962,,0.470960369856365,1,,,,,,,,,0,43,43,43,,,,,,,,,,,,,,,,,,,,,,,,,,,,,,,,,,,,,,,,585.4257025000406,585.4257025000406,585.4257025000406,585.4257025000406,585.4257025000406,585.4257025000406,585.4257025000406,587.4023347999901,587.4023347999901,587.4023347999901,1,v,0.4345045000081882,587.8671657000668,588.367718799971,588.367718799971,588.367718799971,588.367718799971,588.367718799971,588.367718799971,0.930069174407981,1,589.381690600072,,,,,,,,,,,,,,,,,,,,,,,,,,001,2023-02-14_12h13.19.994,CGTriskyDMtask,2022.2.4,59.968972054961114,
,,,,,1,7.46969882017001,0,5.50229978689458,,0.45902404612473,1,,,,,,,,,0,44,44,44,,,,,,,,,,,,,,,,,,,,,,,,,,,,,,,,,,,,,,,,590.3856287000235,590.3856287000235,590.3856287000235,590.3856287000235,590.3856287000235,590.3856287000235,590.3856287000235,592.3615120999748,592.3615120999748,592.3615120999748,1,v,0.3576412999536842,592.7430295000086,593.2493097999832,593.2493097999832,593.2493097999832,593.2493097999832,593.2493097999832,593.2493097999832,7.46969882017001,1,594.2572572999634,,,,,,,,,,,,,,,,,,,,,,,,,,001,2023-02-14_12h13.19.994,CGTriskyDMtask,2022.2.4,59.968972054961114,
,,,,,1,12.8297324232059,0,3.86853570968378,,0.998833516898041,0,,,,,,,,,0,45,45,45,,,,,,,,,,,,,,,,,,,,,,,,,,,,,,,,,,,,,,,,595.2567096999846,595.2567096999846,595.2567096999846,595.2567096999846,595.2567096999846,595.2567096999846,595.2567096999846,597.2373857999919,597.2373857999919,597.2373857999919,1,n,1.288493899977766,598.5509054000722,599.0567099000327,599.0567099000327,599.0567099000327,599.0567099000327,599.0567099000327,599.0567099000327,3.86853570968378,0,600.065595800057,,,,,,,,,,,,,,,,,,,,,,,,,,001,2023-02-14_12h13.19.994,CGTriskyDMtask,2022.2.4,59.968972054961114,
,,,,,1,15.9120864465949,0,1.6249654254294,,0.999580430180111,0,,,,,,,,,0,46,46,46,,,,,,,,,,,,,,,,,,,,,,,,,,,,,,,,,,,,,,,,601.0863097000401,601.0863097000401,601.0863097000401,601.0863097000401,601.0863097000401,601.0863097000401,601.0863097000401,603.0449199000141,603.0449199000141,603.0449199000141,1,v,0.47457229997962713,603.5431214000564,604.0544862999814,604.0544862999814,604.0544862999814,604.0544862999814,604.0544862999814,604.0544862999814,15.9120864465949,1,605.0582395000383,,,,,,,,,,,,,,,,,,,,,,,,,,001,2023-02-14_12h13.19.994,CGTriskyDMtask,2022.2.4,59.968972054961114,
,,,,,2,8.29858638806036,0,0.606279125751462,,0.999602593899225,0,,,,,,,,,0,47,47,47,,,,,,,,,,,,,,,,,,,,,,,,,,,,,,,,,,,,,,,,606.0760326000163,606.0760326000163,606.0760326000163,606.0760326000163,606.0760326000163,606.0760326000163,606.0760326000163,608.0378721000161,608.0378721000161,608.0378721000161,2,n,1.170056900009513,609.2345839999616,609.7394268000498,609.7394268000498,609.7394268000498,609.7394268000498,609.7394268000498,609.7394268000498,8.29858638806036,1,610.7493266999954,,,,,,,,,,,,,,,,,,,,,,,,,,001,2023-02-14_12h13.19.994,CGTriskyDMtask,2022.2.4,59.968972054961114,
,,,,,1,6.76439585804474,0,6.84289560943143,,0.0003103480179734,0,,,,,,,,,0,48,48,48,,,,,,,,,,,,,,,,,,,,,,,,,,,,,,,,,,,,,,,,611.7676717999857,611.7676717999857,611.7676717999857,611.7676717999857,611.7676717999857,611.7676717999857,611.7676717999857,613.7293513000477,613.7293513000477,613.7293513000477,1,v,0.46136730001308024,614.2108334000222,614.7120959999738,614.7120959999738,614.7120959999738,614.7120959999738,614.7120959999738,614.7120959999738,6.76439585804474,1,615.7251025000587,,,,,,,,,,,,,,,,,,,,,,,,,,001,2023-02-14_12h13.19.994,CGTriskyDMtask,2022.2.4,59.968972054961114,
,,,,,1,15.9642548137577,0,4.86805822298629,,0.998800186340602,0,,,,,,,,,0,49,49,49,,,,,,,,,,,,,,,,,,,,,,,,,,,,,,,,,,,,,,,,616.7314267000183,616.7314267000183,616.7314267000183,616.7314267000183,616.7314267000183,616.7314267000183,616.7314267000183,618.7050977000035,618.7050977000035,618.7050977000035,1,n,0.4806530000641942,619.2032446999801,619.7115745999618,619.7115745999618,619.7115745999618,619.7115745999618,619.7115745999618,619.7115745999618,4.86805822298629,0,620.717703100061,,,,,,,,,,,,,,,,,,,,,,,,,,001,2023-02-14_12h13.19.994,CGTriskyDMtask,2022.2.4,59.968972054961114,
,,,,,1,12.3181334222201,0,8.96978921177797,,0.509266402246163,1,,,,,,,,,0,50,50,50,,,,,,,,,,,,,,,,,,,,,,,,,,,,,,,,,,,,,,,,621.720004200004,621.720004200004,621.720004200004,621.720004200004,621.720004200004,621.720004200004,621.720004200004,623.6970977999736,623.6970977999736,623.6970977999736,1,v,0.5608207000186667,624.2787740000058,624.7829351000255,624.7829351000255,624.7829351000255,624.7829351000255,624.7829351000255,624.7829351000255,12.3181334222201,1,625.7929770000046,,,,,,,,,,,,,,,,,,,,,,,,,,001,2023-02-14_12h13.19.994,CGTriskyDMtask,2022.2.4,59.968972054961114,
,,,,,2,7.50385544095188,0,5.47866901755333,,0.497779129626121,1,,,,,,,,,0,51,51,51,,,,,,,,,,,,,,,,,,,,,,,,,,,,,,,,,,,,,,,,626.7925014999928,626.7925014999928,626.7925014999928,626.7925014999928,626.7925014999928,626.7925014999928,626.7925014999928,628.7728279000148,628.7728279000148,628.7728279000148,2,n,0.6376211999449879,629.437698099995,629.9456393000437,629.9456393000437,629.9456393000437,629.9456393000437,629.9456393000437,629.9456393000437,7.50385544095188,1,630.952073100023,,,,,,,,,,,,,,,,,,,,,,,,,,001,2023-02-14_12h13.19.994,CGTriskyDMtask,2022.2.4,59.968972054961114,
,,,,,1,12.7855880603427,0,9.34647258186014,,0.492413190314371,1,,,,,,,,,0,52,52,52,,,,,,,,,,,,,,,,,,,,,,,,,,,,,,,,,,,,,,,,631.9557045999682,631.9557045999682,631.9557045999682,631.9557045999682,631.9557045999682,631.9557045999682,631.9557045999682,633.9316985000623,633.9316985000623,633.9316985000623,1,None,,635.9445935999975,,636.4438240000745,636.4438240000745,636.4438240000745,636.4438240000745,636.4438240000745,nan,nan,637.4425222000573,,,,,,,,,,,,,,,,,,,,,,,,,,001,2023-02-14_12h13.19.994,CGTriskyDMtask,2022.2.4,59.968972054961114,
,,,,,2,15.4751683915616,0,11.2755535623641,,0.506631660717741,1,,,,,,,,,0,53,53,53,,,,,,,,,,,,,,,,,,,,,,,,,,,,,,,,,,,,,,,,638.4577015000395,638.4577015000395,638.4577015000395,638.4577015000395,638.4577015000395,638.4577015000395,638.4577015000395,640.4386367000407,640.4386367000407,640.4386367000407,2,None,,642.4516958000604,,642.9506106000626,642.9506106000626,642.9506106000626,642.9506106000626,642.9506106000626,nan,nan,643.9490805000532,,,,,,,,,,,,,,,,,,,,,,,,,,001,2023-02-14_12h13.19.994,CGTriskyDMtask,2022.2.4,59.968972054961114,
,,,,,2,19.8550507197273,0,6.17131002508104,,0.998739227677726,0,,,,,,,,,0,54,54,54,,,,,,,,,,,,,,,,,,,,,,,,,,,,,,,,,,,,,,,,644.9509723000228,644.9509723000228,644.9509723000228,644.9509723000228,644.9509723000228,644.9509723000228,644.9509723000228,646.9288578999694,646.9288578999694,646.9288578999694,2,None,,648.9417007999728,,649.441151099978,649.441151099978,649.441151099978,649.441151099978,649.441151099978,nan,nan,650.4394820999587,,,,,,,,,,,,,,,,,,,,,,,,,,001,2023-02-14_12h13.19.994,CGTriskyDMtask,2022.2.4,59.968972054961114,
,,,,,1,4.09290708934423,0,7.79902806852478,,9.63866383126128e-07,0,,,,,,,,,0,55,55,55,,,,,,,,,,,,,,,,,,,,,,,,,,,,,,,,,,,,,,,,651.4730182000203,651.4730182000203,651.4730182000203,651.4730182000203,651.4730182000203,651.4730182000203,651.4730182000203,653.4399357000366,653.4399357000366,653.4399357000366,1,v,0.9586759000085294,654.4167031999677,654.9233150000218,654.9233150000218,654.9233150000218,654.9233150000218,654.9233150000218,654.9233150000218,0,1,655.9311960999621,,,,,,,,,,,,,,,,,,,,,,,,,,001,2023-02-14_12h13.19.994,CGTriskyDMtask,2022.2.4,59.968972054961114,
,,,,,2,21.2969890733133,0,10.8361330409185,,0.986818287399501,0,,,,,,,,,0,56,56,56,,,,,,,,,,,,,,,,,,,,,,,,,,,,,,,,,,,,,,,,656.9337019000668,656.9337019000668,656.9337019000668,656.9337019000668,656.9337019000668,656.9337019000668,656.9337019000668,658.9111498000566,658.9111498000566,658.9111498000566,2,None,,660.9238526000408,,661.4277100999607,661.4277100999607,661.4277100999607,661.4277100999607,661.4277100999607,nan,nan,662.4216113999719,,,,,,,,,,,,,,,,,,,,,,,,,,001,2023-02-14_12h13.19.994,CGTriskyDMtask,2022.2.4,59.968972054961114,
,,,,,1,14.8974628288182,0,10.9886289756512,,0.453050648732255,1,,,,,,,,,0,57,57,57,,,,,,,,,,,,,,,,,,,,,,,,,,,,,,,,,,,,,,,,663.4422788000666,663.4422788000666,663.4422788000666,663.4422788000666,663.4422788000666,663.4422788000666,663.4422788000666,665.4181039000396,665.4181039000396,665.4181039000396,1,n,0.4138465999858454,665.8495412999764,666.3605038999813,666.3605038999813,666.3605038999813,666.3605038999813,666.3605038999813,666.3605038999813,10.9886289756512,0,667.3640090000117,,,,,,,,,,,,,,,,,,,,,,,,,,001,2023-02-14_12h13.19.994,CGTriskyDMtask,2022.2.4,59.968972054961114,
,,,,,1,1.54871266137343,0,5.09840145208873,,2.53712832466847e-07,0,,,,,,,,,0,58,58,58,,,,,,,,,,,,,,,,,,,,,,,,,,,,,,,,,,,,,,,,668.3799447000492,668.3799447000492,668.3799447000492,668.3799447000492,668.3799447000492,668.3799447000492,668.3799447000492,670.3439156999812,670.3439156999812,670.3439156999812,1,n,0.5489995999960229,670.9091015000595,,671.4249626999954,671.4249626999954,671.4249626999954,671.4249626999954,671.4249626999954,5.09840145208873,0,672.4230339999776,,,,,,,,,,,,,,,,,,,,,,,,,,001,2023-02-14_12h13.19.994,CGTriskyDMtask,2022.2.4,59.968972054961114,
,,,,,2,12.3787258436554,0,5.9579818975646,,0.991214373372113,0,,,,,,,,,0,59,59,59,,,,,,,,,,,,,,,,,,,,,,,,,,,,,,,,,,,,,,,,673.4387692000018,673.4387692000018,673.4387692000018,673.4387692000018,673.4387692000018,673.4387692000018,673.4387692000018,675.4030272000236,675.4030272000236,675.4030272000236,2,n,0.4834860999835655,675.9174274000106,676.4252060999861,676.4252060999861,676.4252060999861,676.4252060999861,676.4252060999861,676.4252060999861,0,1,677.4321502000093,,,,,,,,,,,,,,,,,,,,,,,,,,001,2023-02-14_12h13.19.994,CGTriskyDMtask,2022.2.4,59.968972054961114,
,,,,,1,23.2625387147302,0,1.58352837779094,,0.999605435566074,0,,,,,,,,,0,60,60,60,,,,,,,,,,,,,,,,,,,,,,,,,,,,,,,,,,,,,,,,678.4504293999635,678.4504293999635,678.4504293999635,678.4504293999635,678.4504293999635,678.4504293999635,678.4504293999635,680.4120451000053,680.4120451000053,680.4120451000053,1,v,1.5595895000733435,681.9917050000513,682.4935598999728,682.4935598999728,682.4935598999728,682.4935598999728,682.4935598999728,682.4935598999728,23.2625387147302,1,683.5060616000555,,,,,,,,,,,,,,,,,,,,,,,,,,001,2023-02-14_12h13.19.994,CGTriskyDMtask,2022.2.4,59.968972054961114,
,,,,,2,11.6368319313158,0,8.47000439299736,,0.511136597940867,1,,,,,,,,,0,61,61,61,,,,,,,,,,,,,,,,,,,,,,,,,,,,,,,,,,,,,,,,684.5222632000223,684.5222632000223,684.5222632000223,684.5222632000223,684.5222632000223,684.5222632000223,684.5222632000223,686.4921476000454,686.4921476000454,686.4921476000454,2,None,,688.4988414000254,,689.0031744000735,689.0031744000735,689.0031744000735,689.0031744000735,689.0031744000735,nan,nan,689.9965223000618,,,,,,,,,,,,,,,,,,,,,,,,,,001,2023-02-14_12h13.19.994,CGTriskyDMtask,2022.2.4,59.968972054961114,
,,,,,1,14.7166727575008,0,10.8525968134403,,0.454135912410058,1,,,,,,,,,0,62,62,62,,,,,,,,,,,,,,,,,,,,,,,,,,,,,,,,,,,,,,,,691.0159051000373,691.0159051000373,691.0159051000373,691.0159051000373,691.0159051000373,691.0159051000373,691.0159051000373,692.992691099993,692.992691099993,692.992691099993,1,None,,695.0052574999863,,695.5050566999707,695.5050566999707,695.5050566999707,695.5050566999707,695.5050566999707,nan,nan,696.5033833000343,,,,,,,,,,,,,,,,,,,,,,,,,,001,2023-02-14_12h13.19.994,CGTriskyDMtask,2022.2.4,59.968972054961114,
,,,,,1,10.4284542424255,0,7.61691154480213,,0.496096380727209,1,,,,,,,,,0,63,63,63,,,,,,,,,,,,,,,,,,,,,,,,,,,,,,,,,,,,,,,,697.5203730000649,697.5203730000649,697.5203730000649,697.5203730000649,697.5203730000649,697.5203730000649,697.5203730000649,699.4830646000337,699.4830646000337,699.4830646000337,1,None,,701.4958307000343,,701.9948662000243,701.9948662000243,701.9948662000243,701.9948662000243,701.9948662000243,nan,nan,703.009778900072,,,,,,,,,,,,,,,,,,,,,,,,,,001,2023-02-14_12h13.19.994,CGTriskyDMtask,2022.2.4,59.968972054961114,
,,,,,1,10.3654338442138,0,7.50107375371736,,0.535854429357377,1,,,,,,,,,0,64,64,64,,,,,,,,,,,,,,,,,,,,,,,,,,,,,,,,,,,,,,,,704.0093406999949,704.0093406999949,704.0093406999949,704.0093406999949,704.0093406999949,704.0093406999949,704.0093406999949,705.9899927000515,705.9899927000515,705.9899927000515,1,v,0.42443330003879964,706.4382776999846,,706.9549413999775,706.9549413999775,706.9549413999775,706.9549413999775,706.9549413999775,10.3654338442138,1,707.9523485000245,,,,,,,,,,,,,,,,,,,,,,,,,,001,2023-02-14_12h13.19.994,CGTriskyDMtask,2022.2.4,59.968972054961114,
,,,,,1,13.2305840928457,0,9.54353669674601,,0.549476246572702,1,,,,,,,,,0,65,65,65,,,,,,,,,,,,,,,,,,,,,,,,,,,,,,,,,,,,,,,,708.9806151000084,708.9806151000084,708.9806151000084,708.9806151000084,708.9806151000084,708.9806151000084,708.9806151000084,710.9328166999621,710.9328166999621,710.9328166999621,1,n,1.0121975999791175,711.9630756999832,712.4627617000369,712.4627617000369,712.4627617000369,712.4627617000369,712.4627617000369,712.4627617000369,9.54353669674601,0,713.477774900035,,,,,,,,,,,,,,,,,,,,,,,,,,001,2023-02-14_12h13.19.994,CGTriskyDMtask,2022.2.4,59.968972054961114,
,,,,,1,12.8296080687433,0,5.94699897932587,,0.993148174564392,0,,,,,,,,,0,66,66,66,,,,,,,,,,,,,,,,,,,,,,,,,,,,,,,,,,,,,,,,714.4937129999744,714.4937129999744,714.4937129999744,714.4937129999744,714.4937129999744,714.4937129999744,714.4937129999744,716.4577641000506,716.4577641000506,716.4577641000506,1,v,0.5689167999662459,717.0558563000523,717.5600310000591,717.5600310000591,717.5600310000591,717.5600310000591,717.5600310000591,717.5600310000591,0,1,718.5698528999928,,,,,,,,,,,,,,,,,,,,,,,,,,001,2023-02-14_12h13.19.994,CGTriskyDMtask,2022.2.4,59.968972054961114,
,,,,,1,1.80907654175535,0,3.4750437895651,,9.32134931725014e-07,0,,,,,,,,,0,67,67,67,,,,,,,,,,,,,,,,,,,,,,,,,,,,,,,,,,,,,,,,719.5949648000533,719.5949648000533,719.5949648000533,719.5949648000533,719.5949648000533,719.5949648000533,719.5949648000533,721.5501107999589,721.5501107999589,721.5501107999589,1,n,0.35231610003393143,721.931783100008,722.4543796000071,722.4543796000071,722.4543796000071,722.4543796000071,722.4543796000071,722.4543796000071,3.4750437895651,0,723.4460087000625,,,,,,,,,,,,,,,,,,,,,,,,,,001,2023-02-14_12h13.19.994,CGTriskyDMtask,2022.2.4,59.968972054961114,
,,,,,1,5.50879845829913,0,4.00398475197144,,0.517208381407179,1,,,,,,,,,0,68,68,68,,,,,,,,,,,,,,,,,,,,,,,,,,,,,,,,,,,,,,,,724.4728243000573,724.4728243000573,724.4728243000573,724.4728243000573,724.4728243000573,724.4728243000573,724.4728243000573,726.4259881000035,726.4259881000035,726.4259881000035,1,n,0.40190669998992234,726.8572548000375,727.3643726999871,727.3643726999871,727.3643726999871,727.3643726999871,727.3643726999871,727.3643726999871,4.00398475197144,0,728.371975600021,,,,,,,,,,,,,,,,,,,,,,,,,,001,2023-02-14_12h13.19.994,CGTriskyDMtask,2022.2.4,59.968972054961114,
,,,,,1,15.7805222353898,0,11.4003730780096,,0.54302893701428,1,,,,,,,,,0,69,69,69,,,,,,,,,,,,,,,,,,,,,,,,,,,,,,,,,,,,,,,,729.3931951000122,729.3931951000122,729.3931951000122,729.3931951000122,729.3931951000122,729.3931951000122,729.3931951000122,731.3520032999804,731.3520032999804,731.3520032999804,1,v,0.6159743999596685,731.983004400041,732.487288900069,732.487288900069,732.487288900069,732.487288900069,732.487288900069,732.487288900069,0,1,733.4975642999634,,,,,,,,,,,,,,,,,,,,,,,,,,001,2023-02-14_12h13.19.994,CGTriskyDMtask,2022.2.4,59.968972054961114,
,,,,,1,11.5017341580358,0,8.39777178836521,,0.497677847278334,1,,,,,,,,,0,70,70,70,,,,,,,,,,,,,,,,,,,,,,,,,,,,,,,,,,,,,,,,734.5157372000394,734.5157372000394,734.5157372000394,734.5157372000394,734.5157372000394,734.5157372000394,734.5157372000394,736.4775011000456,736.4775011000456,736.4775011000456,1,v,0.5548383999848738,737.0587585000321,737.5600278000347,737.5600278000347,737.5600278000347,737.5600278000347,737.5600278000347,737.5600278000347,11.5017341580358,1,738.5732548000524,,,,,,,,,,,,,,,,,,,,,,,,,,001,2023-02-14_12h13.19.994,CGTriskyDMtask,2022.2.4,59.968972054961114,
,,,,,1,4.88169195038499,0,10.185264493234,,6.82555625910852e-07,0,,,,,,,,,0,71,71,71,,,,,,,,,,,,,,,,,,,,,,,,,,,,,,,,,,,,,,,,739.5765267000534,739.5765267000534,739.5765267000534,739.5765267000534,739.5765267000534,739.5765267000534,739.5765267000534,741.5565151000628,741.5565151000628,741.5565151000628,1,n,0.34805769997183233,741.9346579000121,742.4403816000558,742.4403816000558,742.4403816000558,742.4403816000558,742.4403816000558,742.4403816000558,10.185264493234,0,743.4490872999886,,,,,,,,,,,,,,,,,,,,,,,,,,001,2023-02-14_12h13.19.994,CGTriskyDMtask,2022.2.4,59.968972054961114,
,,,,,2,16.1708833408076,0,11.7539443126996,,0.517066554052106,1,,,,,,,,,0,72,72,72,,,,,,,,,,,,,,,,,,,,,,,,,,,,,,,,,,,,,,,,744.4485164000653,744.4485164000653,744.4485164000653,744.4485164000653,744.4485164000653,744.4485164000653,744.4485164000653,746.4290521000512,746.4290521000512,746.4290521000512,2,n,0.6174847000511363,747.0768218999729,747.5770090000005,747.5770090000005,747.5770090000005,747.5770090000005,747.5770090000005,747.5770090000005,0,1,748.5911476999754,,,,,,,,,,,,,,,,,,,,,,,,,,001,2023-02-14_12h13.19.994,CGTriskyDMtask,2022.2.4,59.968972054961114,
,,,,,1,12.1731382177793,0,8.93496288491879,,0.47469197331758,1,,,,,,,,,0,73,73,73,,,,,,,,,,,,,,,,,,,,,,,,,,,,,,,,,,,,,,,,749.5906128999777,749.5906128999777,749.5906128999777,749.5906128999777,749.5906128999777,749.5906128999777,749.5906128999777,751.5709523999831,751.5709523999831,751.5709523999831,1,v,0.4054240999976173,752.002628599992,752.5027115000412,752.5027115000412,752.5027115000412,752.5027115000412,752.5027115000412,752.5027115000412,12.1731382177793,1,753.5009437999688,,,,,,,,,,,,,,,,753.5009437999688,753.5009437999688,753.5009437999688,753.5009437999688,753.5009437999688,,,,,,001,2023-02-14_12h13.19.994,CGTriskyDMtask,2022.2.4,59.968972054961114,
,,,,,1,15.9839565130882,0,11.5596638984745,,0.538532280346087,1,,,,,,,,,0,74,74,74,,,,,,,,,,,,,,,,,,,,,,,,,,,,,,,,,,,,,,,,754.5450497000711,754.5450497000711,754.5450497000711,754.5450497000711,754.5450497000711,754.5450497000711,754.5450497000711,756.497355200001,756.497355200001,756.497355200001,1,v,0.4770588999381289,756.9955622999696,,757.5154712999938,757.5154712999938,757.5154712999938,757.5154712999938,757.5154712999938,0,1,758.509618800017,,,,,,,,,,,,,,,,,,,,,,,,,,001,2023-02-14_12h13.19.994,CGTriskyDMtask,2022.2.4,59.968972054961114,
,,,,,1,3.51169222455937,0,10.0250646283734,,3.1330697419839e-07,0,,,,,,,,,0,75,75,75,,,,,,,,,,,,,,,,,,,,,,,,,,,,,,,,,,,,,,,,759.5276183000533,759.5276183000533,759.5276183000533,759.5276183000533,759.5276183000533,759.5276183000533,759.5276183000533,761.4897686999757,761.4897686999757,761.4897686999757,1,n,0.8225054999347776,762.3376425000606,762.848914799979,762.848914799979,762.848914799979,762.848914799979,762.848914799979,762.848914799979,10.0250646283734,0,763.8517557000741,,,,,,,,,,,,,,,,,,,,,,,,,,001,2023-02-14_12h13.19.994,CGTriskyDMtask,2022.2.4,59.968972054961114,
,,,,,2,7.34342208289308,0,5.39614215102047,,0.469701029769066,1,,,,,,,,,0,76,76,76,,,,,,,,,,,,,,,,,,,,,,,,,,,,,,,,,,,,,,,,764.859524999978,764.859524999978,764.859524999978,764.859524999978,764.859524999978,764.859524999978,764.859524999978,766.8317361000227,766.8317361000227,766.8317361000227,2,v,0.4164385999320075,767.2632478000596,767.7755384000484,767.7755384000484,767.7755384000484,767.7755384000484,767.7755384000484,767.7755384000484,5.39614215102047,0,768.7777460999787,,,,,,,,,,,,,,,,,,,,,,,,,,001,2023-02-14_12h13.19.994,CGTriskyDMtask,2022.2.4,59.968972054961114,
,,,,,2,12.43092202025,0,9.16525074016536,,0.454976637381635,1,,,,,,,,,0,77,77,77,,,,,,,,,,,,,,,,,,,,,,,,,,,,,,,,,,,,,,,,769.7832673999947,769.7832673999947,769.7832673999947,769.7832673999947,769.7832673999947,769.7832673999947,769.7832673999947,771.7577615999617,771.7577615999617,771.7577615999617,2,n,0.36913210002239794,772.1558139000554,772.6685995999724,772.6685995999724,772.6685995999724,772.6685995999724,772.6685995999724,772.6685995999724,0,1,773.6704293000512,,,,,,,,,,,,,,,,,,,,,,,,,,001,2023-02-14_12h13.19.994,CGTriskyDMtask,2022.2.4,59.968972054961114,
,,,,,2,7.77296945304843,0,5.61479821060784,,0.543518112298152,1,,,,,,,,,0,78,78,78,,,,,,,,,,,,,,,,,,,,,,,,,,,,,,,,,,,,,,,,774.6704203999834,774.6704203999834,774.6704203999834,774.6704203999834,774.6704203999834,774.6704203999834,774.6704203999834,776.6502074999735,776.6502074999735,776.6502074999735,2,n,1.8544888000469655,778.5301184999989,,779.0634284999687,779.0634284999687,779.0634284999687,779.0634284999687,779.0634284999687,7.77296945304843,1,780.0439793000696,,,,,,,,,,,,,,,,,,,,,,,,,,001,2023-02-14_12h13.19.994,CGTriskyDMtask,2022.2.4,59.968972054961114,
,,,,,2,7.97047507090028,0,5.83474096807185,,0.486292252972497,1,,,,,,,,,0,79,79,79,,,,,,,,,,,,,,,,,,,,,,,,,,,,,,,,,,,,,,,,781.0490587999811,781.0490587999811,781.0490587999811,781.0490587999811,781.0490587999811,781.0490587999811,781.0490587999811,783.0238310999703,783.0238310999703,783.0238310999703,2,n,1.0431741999927908,784.0878359000199,784.5878563000588,784.5878563000588,784.5878563000588,784.5878563000588,784.5878563000588,784.5878563000588,7.97047507090028,1,785.6020115000429,,,,,,,,,,,,,,,,,,,,,,,,,,001,2023-02-14_12h13.19.994,CGTriskyDMtask,2022.2.4,59.968972054961114,
,,,,,2,7.885111921106,0,9.48222200408345,,2.73085403302157e-05,0,,,,,,,,,0,80,80,80,,,,,,,,,,,,,,,,,,,,,,,,,,,,,,,,,,,,,,,,786.6265277999919,786.6265277999919,786.6265277999919,786.6265277999919,786.6265277999919,786.6265277999919,786.6265277999919,788.5822274000384,788.5822274000384,788.5822274000384,2,v,0.4933053998975083,789.0969735999824,789.5977527999785,789.5977527999785,789.5977527999785,789.5977527999785,789.5977527999785,789.5977527999785,9.48222200408345,0,790.6115532000549,,,,,,,,,,,,,,,,,,,,,,,,,,001,2023-02-14_12h13.19.994,CGTriskyDMtask,2022.2.4,59.968972054961114,
,,,,,2,5.9868884119438,0,4.41330057636369,,0.455773104426523,1,,,,,,,,,0,81,81,81,,,,,,,,,,,,,,,,,,,,,,,,,,,,,,,,,,,,,,,,791.6274800000247,791.6274800000247,791.6274800000247,791.6274800000247,791.6274800000247,791.6274800000247,791.6274800000247,793.5913511000108,793.5913511000108,793.5913511000108,2,n,0.47936839994508773,794.0895338000264,794.594205899979,794.594205899979,794.594205899979,794.594205899979,794.594205899979,794.594205899979,0,1,795.6040037999628,,,,,,,,,,,,,,,,,,,,,,,,,,001,2023-02-14_12h13.19.994,CGTriskyDMtask,2022.2.4,59.968972054961114,
,,,,,2,12.5401000921382,0,9.07685844344087,,0.53489291573924,1,,,,,,,,,0,82,82,82,,,,,,,,,,,,,,,,,,,,,,,,,,,,,,,,,,,,,,,,796.6183619999792,796.6183619999792,796.6183619999792,796.6183619999792,796.6183619999792,796.6183619999792,796.6183619999792,798.5839626999805,798.5839626999805,798.5839626999805,2,n,0.3648329999996349,798.9653146000346,799.4656371000456,799.4656371000456,799.4656371000456,799.4656371000456,799.4656371000456,799.4656371000456,0,1,800.4799060999649,,,,,,,,,,,,,,,,,,,,,,,,,,001,2023-02-14_12h13.19.994,CGTriskyDMtask,2022.2.4,59.968972054961114,
,,,,,2,26.0622198498459,0,6.32986451961333,,0.999238542921782,0,,,,,,,,,0,83,83,83,,,,,,,,,,,,,,,,,,,,,,,,,,,,,,,,,,,,,,,,801.4971210999647,801.4971210999647,801.4971210999647,801.4971210999647,801.4971210999647,801.4971210999647,801.4971210999647,803.4595021000132,803.4595021000132,803.4595021000132,2,n,0.4015320000471547,803.8912417000392,804.3975798999891,804.3975798999891,804.3975798999891,804.3975798999891,804.3975798999891,804.3975798999891,26.0622198498459,1,805.4059370000614,,,,,,,,,,,,,,,,,,,,,,,,,,001,2023-02-14_12h13.19.994,CGTriskyDMtask,2022.2.4,59.968972054961114,
,,,,,2,3.90467424340313,0,2.85026947726728,,0.498672988038076,1,,,,,,,,,0,84,84,84,,,,,,,,,,,,,,,,,,,,,,,,,,,,,,,,,,,,,,,,806.4146838000743,806.4146838000743,806.4146838000743,806.4146838000743,806.4146838000743,806.4146838000743,806.4146838000743,808.3857791000046,808.3857791000046,808.3857791000046,2,n,0.5724795999703929,808.9835402000463,809.4881991000148,809.4881991000148,809.4881991000148,809.4881991000148,809.4881991000148,809.4881991000148,0,1,810.498208199977,,,,,,,,,,,,,,,,,,,,,,,,,,001,2023-02-14_12h13.19.994,CGTriskyDMtask,2022.2.4,59.968972054961114,
,,,,,2,2.14582826610422,0,6.19636204837589,,3.07258477464894e-07,0,,,,,,,,,0,85,85,85,,,,,,,,,,,,,,,,,,,,,,,,,,,,,,,,,,,,,,,,811.5031125000678,811.5031125000678,811.5031125000678,811.5031125000678,811.5031125000678,811.5031125000678,811.5031125000678,813.4780261999695,813.4780261999695,813.4780261999695,2,v,0.618526199948974,814.1261146999896,814.6313360000495,814.6313360000495,814.6313360000495,814.6313360000495,814.6313360000495,814.6313360000495,6.19636204837589,0,815.6403350000037,,,,,,,,,,,,,,,,,,,,,,,,,,001,2023-02-14_12h13.19.994,CGTriskyDMtask,2022.2.4,59.968972054961114,
,,,,,1,13.8117034795112,0,10.14720358419,,0.470566782816974,1,,,,,,,,,0,86,86,86,,,,,,,,,,,,,,,,,,,,,,,,,,,,,,,,,,,,,,,,816.6445008000592,816.6445008000592,816.6445008000592,816.6445008000592,816.6445008000592,816.6445008000592,816.6445008000592,818.6202269999776,818.6202269999776,818.6202269999776,1,v,0.3483558000298217,818.9852332000155,819.4888005000539,819.4888005000539,819.4888005000539,819.4888005000539,819.4888005000539,819.4888005000539,0,1,820.4997565000085,,,,,,,,,,,,,,,,,,,,,,,,,,001,2023-02-14_12h13.19.994,CGTriskyDMtask,2022.2.4,59.968972054961114,
,,,,,1,14.8679605292622,0,10.7965207763482,,0.521186021013398,1,,,,,,,,,0,87,87,87,,,,,,,,,,,,,,,,,,,,,,,,,,,,,,,,,,,,,,,,821.5158449000446,821.5158449000446,821.5158449000446,821.5158449000446,821.5158449000446,821.5158449000446,821.5158449000446,823.4797890000045,823.4797890000045,823.4797890000045,1,v,0.39894500002264977,823.8943221999798,824.3943534999853,824.3943534999853,824.3943534999853,824.3943534999853,824.3943534999853,824.3943534999853,14.8679605292622,1,825.4090889999643,,,,,,,,,,,,,,,,,,,,,,,,,,001,2023-02-14_12h13.19.994,CGTriskyDMtask,2022.2.4,59.968972054961114,
,,,,,1,7.40345448039006,0,11.0160209686612,,3.82943327999341e-06,0,,,,,,,,,0,88,88,88,,,,,,,,,,,,,,,,,,,,,,,,,,,,,,,,,,,,,,,,826.426846300019,826.426846300019,826.426846300019,826.426846300019,826.426846300019,826.426846300019,826.426846300019,828.3890336999903,828.3890336999903,828.3890336999903,1,n,0.343298599938862,828.7537857000716,829.2592641999945,829.2592641999945,829.2592641999945,829.2592641999945,829.2592641999945,829.2592641999945,11.0160209686612,0,830.2683024000144,,,,,,,,,,,,,,,,,,,,,,,,,,001,2023-02-14_12h13.19.994,CGTriskyDMtask,2022.2.4,59.968972054961114,
,,,,,2,8.61359701523324,0,6.23963517254451,,0.531571125695567,1,,,,,,,,,0,89,89,89,,,,,,,,,,,,,,,,,,,,,,,,,,,,,,,,,,,,,,,,831.2916120999726,831.2916120999726,831.2916120999726,831.2916120999726,831.2916120999726,831.2916120999726,831.2916120999726,833.2482573000016,833.2482573000016,833.2482573000016,2,n,0.4624618000816554,833.7295505000511,834.2355726000387,834.2355726000387,834.2355726000387,834.2355726000387,834.2355726000387,834.2355726000387,8.61359701523324,1,835.2442166999681,,,,,,,,,,,,,,,,,,,,,,,,,,001,2023-02-14_12h13.19.994,CGTriskyDMtask,2022.2.4,59.968972054961114,
,,,,,1,11.7246251986828,0,8.65205887362827,,0.45113325471134,1,,,,,,,,,0,90,90,90,,,,,,,,,,,,,,,,,,,,,,,,,,,,,,,,,,,,,,,,836.2732066999888,836.2732066999888,836.2732066999888,836.2732066999888,836.2732066999888,836.2732066999888,836.2732066999888,838.224028000026,838.224028000026,838.224028000026,1,v,0.33979130000807345,838.5890966000734,839.0889695000369,839.0889695000369,839.0889695000369,839.0889695000369,839.0889695000369,839.0889695000369,0,1,840.1031721000327,,,,,,,,,,,,,,,,,,,,,,,,,,001,2023-02-14_12h13.19.994,CGTriskyDMtask,2022.2.4,59.968972054961114,
,,,,,2,12.3686276309076,0,3.83482166501926,,0.998747501200337,0,,,,,,,,,0,91,91,91,,,,,,,,,,,,,,,,,,,,,,,,,,,,,,,,,,,,,,,,841.1026724000694,841.1026724000694,841.1026724000694,841.1026724000694,841.1026724000694,841.1026724000694,841.1026724000694,843.0832670000382,843.0832670000382,843.0832670000382,2,n,0.4597188000334427,843.5649410999613,844.0651346000377,844.0651346000377,844.0651346000377,844.0651346000377,844.0651346000377,844.0651346000377,0,1,845.0790401999839,,,,,,,,,,,,,,,,,,,,,,,,,,001,2023-02-14_12h13.19.994,CGTriskyDMtask,2022.2.4,59.968972054961114,
,,,,,1,15.5204175726627,0,11.3529115039855,,0.489638984306418,1,,,,,,,,,0,92,92,92,,,,,,,,,,,,,,,,,,,,,,,,,,,,,,,,,,,,,,,,846.0839683000231,846.0839683000231,846.0839683000231,846.0839683000231,846.0839683000231,846.0839683000231,846.0839683000231,848.0593182999874,848.0593182999874,848.0593182999874,1,v,0.38767249998636544,848.474178000004,848.9759184999857,848.9759184999857,848.9759184999857,848.9759184999857,848.9759184999857,848.9759184999857,15.5204175726627,1,849.988590599969,,,,,,,,,,,,,,,,,,,,,,,,,,001,2023-02-14_12h13.19.994,CGTriskyDMtask,2022.2.4,59.968972054961114,
,,,,,2,7.41758649026742,0,6.66642780607799,,0.0101434795093614,0,,,,,,,,,0,93,93,93,,,,,,,,,,,,,,,,,,,,,,,,,,,,,,,,,,,,,,,,850.9926233000588,850.9926233000588,850.9926233000588,850.9926233000588,850.9926233000588,850.9926233000588,850.9926233000588,852.9684634000296,852.9684634000296,852.9684634000296,2,n,0.4351105000823736,853.4331720999908,853.9443560000509,853.9443560000509,853.9443560000509,853.9443560000509,853.9443560000509,853.9443560000509,7.41758649026742,1,854.9477950000437,,,,,,,,,,,,,,,,,,,,,,,,,,001,2023-02-14_12h13.19.994,CGTriskyDMtask,2022.2.4,59.968972054961114,
,,,,,1,7.9733313324512,0,10.1682703314349,,1.4449977297959e-05,0,,,,,,,,,0,94,94,94,,,,,,,,,,,,,,,,,,,,,,,,,,,,,,,,,,,,,,,,855.9652044000104,855.9652044000104,855.9652044000104,855.9652044000104,855.9652044000104,855.9652044000104,855.9652044000104,857.9276943000732,857.9276943000732,857.9276943000732,1,n,0.4094931000145152,858.3595183000434,858.8612406000029,858.8612406000029,858.8612406000029,858.8612406000029,858.8612406000029,858.8612406000029,10.1682703314349,0,859.8738499999745,,,,,,,,,,,,,,,,,,,,,,,,,,001,2023-02-14_12h13.19.994,CGTriskyDMtask,2022.2.4,59.968972054961114,
,,,,,2,7.97795445523225,0,5.76263879332691,,0.543686086879227,1,,,,,,,,,0,95,95,95,,,,,,,,,,,,,,,,,,,,,,,,,,,,,,,,,,,,,,,,860.8875603000633,860.8875603000633,860.8875603000633,860.8875603000633,860.8875603000633,860.8875603000633,860.8875603000633,862.8536154000321,862.8536154000321,862.8536154000321,2,n,0.5323859000345692,863.4016619999893,863.9078074999852,863.9078074999852,863.9078074999852,863.9078074999852,863.9078074999852,863.9078074999852,0,1,864.9162794000003,,,,,,,,,,,,,,,,,,,,,,,,,,001,2023-02-14_12h13.19.994,CGTriskyDMtask,2022.2.4,59.968972054961114,
,,,,,1,29.5553099200595,0,9.654214021191,,0.998551213238434,0,,,,,,,,,0,96,96,96,,,,,,,,,,,,,,,,,,,,,,,,,,,,,,,,,,,,,,,,865.9314584999811,865.9314584999811,865.9314584999811,865.9314584999811,865.9314584999811,865.9314584999811,865.9314584999811,867.9021930000745,867.9021930000745,867.9021930000745,1,v,0.3490833000978455,868.2777844000375,868.777690900024,868.777690900024,868.777690900024,868.777690900024,868.777690900024,868.777690900024,0,1,869.7920363000594,,,,,,,,,,,,,,,,,,,,,,,,,,001,2023-02-14_12h13.19.994,CGTriskyDMtask,2022.2.4,59.968972054961114,
,,,,,2,13.2444909495302,0,9.63881156699499,,0.511738062838599,1,,,,,,,,,0,97,97,97,,,,,,,,,,,,,,,,,,,,,,,,,,,,,,,,,,,,,,,,870.8089627000736,870.8089627000736,870.8089627000736,870.8089627000736,870.8089627000736,870.8089627000736,870.8089627000736,872.7719111000188,872.7719111000188,872.7719111000188,2,n,0.43057510000653565,873.2201820999617,873.7204923999961,873.7204923999961,873.7204923999961,873.7204923999961,873.7204923999961,873.7204923999961,0,1,874.7346362000098,,,,,,,,,,,,,,,,,,,,,,,,,,001,2023-02-14_12h13.19.994,CGTriskyDMtask,2022.2.4,59.968972054961114,
,,,,,1,11.1786384824896,0,8.12808942174306,,0.515586832393346,1,,,,,,,,,0,98,98,98,,,,,,,,,,,,,,,,,,,,,,,,,,,,,,,,,,,,,,,,875.7489819000475,875.7489819000475,875.7489819000475,875.7489819000475,875.7489819000475,875.7489819000475,875.7489819000475,877.7145347000333,877.7145347000333,877.7145347000333,1,v,0.39292720006778836,878.1296248000581,878.6349362999899,878.6349362999899,878.6349362999899,878.6349362999899,878.6349362999899,878.6349362999899,11.1786384824896,1,879.6438961999957,,,,,,,,,,,,,,,,,,,,,,,,,,001,2023-02-14_12h13.19.994,CGTriskyDMtask,2022.2.4,59.968972054961114,
,,,,,1,0.826421155862045,0,4.73129356332356,,1.69501347836124e-07,0,,,,,,,,,0,99,99,99,,,,,,,,,,,,,,,,,,,,,,,,,,,,,,,,,,,,,,,,880.662219800055,880.662219800055,880.662219800055,880.662219800055,880.662219800055,880.662219800055,880.662219800055,882.6239574999781,882.6239574999781,882.6239574999781,1,n,0.46974089997820556,883.1220334999962,883.628146699979,883.628146699979,883.628146699979,883.628146699979,883.628146699979,883.628146699979,4.73129356332356,0,884.6364045999944,,,,,,,,,,,,,,,,,,,,,,,,,,001,2023-02-14_12h13.19.994,CGTriskyDMtask,2022.2.4,59.968972054961114,
,,,,,2,1.08920302031329,0,5.72604949277593,,1.75538024132649e-07,0,,,,,,,,,0,100,100,100,,,,,,,,,,,,,,,,,,,,,,,,,,,,,,,,,,,,,,,,885.6403904999606,885.6403904999606,885.6403904999606,885.6403904999606,885.6403904999606,885.6403904999606,885.6403904999606,887.616367300041,887.616367300041,887.616367300041,2,v,0.7007939000613987,888.34746119997,888.8647016000468,888.8647016000468,888.8647016000468,888.8647016000468,888.8647016000468,888.8647016000468,5.72604949277593,0,889.8618771999609,,,,,,,,,,,,,,,,,,,,,,,,,,001,2023-02-14_12h13.19.994,CGTriskyDMtask,2022.2.4,59.968972054961114,
,,,,,1,14.5524564450607,0,10.5500439672847,,0.528209178493363,1,,,,,,,,,0,101,101,101,,,,,,,,,,,,,,,,,,,,,,,,,,,,,,,,,,,,,,,,890.8671601000242,890.8671601000242,890.8671601000242,890.8671601000242,890.8671601000242,890.8671601000242,890.8671601000242,892.8418175000697,892.8418175000697,892.8418175000697,1,n,0.6017577999737114,893.4728775999974,893.9740679999813,893.9740679999813,893.9740679999813,893.9740679999813,893.9740679999813,893.9740679999813,10.5500439672847,0,894.9874752999749,,,,,,,,,,,,,,,,,,,,,,,,,,001,2023-02-14_12h13.19.994,CGTriskyDMtask,2022.2.4,59.968972054961114,
,,,,,2,20.0792028427939,0,7.92419633484678,,0.997105219299517,0,,,,,,,,,0,102,102,102,,,,,,,,,,,,,,,,,,,,,,,,,,,,,,,,,,,,,,,,895.9902311000042,895.9902311000042,895.9902311000042,895.9902311000042,895.9902311000042,895.9902311000042,895.9902311000042,897.967346600024,897.967346600024,897.967346600024,2,n,0.4417056000092998,898.4323669000296,898.9361067999853,898.9361067999853,898.9361067999853,898.9361067999853,898.9361067999853,898.9361067999853,0,1,899.946628900012,,,,,,,,,,,,,,,,,,,,,,,,,,001,2023-02-14_12h13.19.994,CGTriskyDMtask,2022.2.4,59.968972054961114,
,,,,,2,20.4690216503455,0,8.36299072438851,,0.996599505136878,0,,,,,,,,,0,103,103,103,,,,,,,,,,,,,,,,,,,,,,,,,,,,,,,,,,,,,,,,900.9522321000695,900.9522321000695,900.9522321000695,900.9522321000695,900.9522321000695,900.9522321000695,900.9522321000695,902.9265974999871,902.9265974999871,902.9265974999871,2,n,0.5594090999802575,903.5082014000509,904.0079869000474,904.0079869000474,904.0079869000474,904.0079869000474,904.0079869000474,904.0079869000474,0,1,905.0223432000494,,,,,,,,,,,,,,,,,,,,,,,,,,001,2023-02-14_12h13.19.994,CGTriskyDMtask,2022.2.4,59.968972054961114,
,,,,,1,5.76958265299909,0,4.19300689800875,,0.517745326209646,1,,,,,,,,,0,104,104,104,,,,,,,,,,,,,,,,,,,,,,,,,,,,,,,,,,,,,,,,906.0272578999866,906.0272578999866,906.0272578999866,906.0272578999866,906.0272578999866,906.0272578999866,906.0272578999866,908.0022534000454,908.0022534000454,908.0022534000454,1,n,0.9227144999895245,908.9497188000241,909.4565716000507,909.4565716000507,909.4565716000507,909.4565716000507,909.4565716000507,909.4565716000507,4.19300689800875,0,910.4641460999846,,,,,,,,,,,,,,,,,,,,,,,,,,001,2023-02-14_12h13.19.994,CGTriskyDMtask,2022.2.4,59.968972054961114,
,,,,,1,15.4444306363817,0,0.815964281244669,,0.999612562839435,0,,,,,,,,,0,105,105,105,,,,,,,,,,,,,,,,,,,,,,,,,,,,,,,,,,,,,,,,911.4816806999734,911.4816806999734,911.4816806999734,911.4816806999734,911.4816806999734,911.4816806999734,911.4816806999734,913.4440038000466,913.4440038000466,913.4440038000466,1,v,0.38560010003857315,913.8585370000219,914.3671812000684,914.3671812000684,914.3671812000684,914.3671812000684,914.3671812000684,914.3671812000684,15.4444306363817,1,915.3734451000346,,,,,,,,,,,,,,,,,,,,,,,,,,001,2023-02-14_12h13.19.994,CGTriskyDMtask,2022.2.4,59.968972054961114,
,,,,,1,23.438748123555,0,6.49802999794483,,0.999035394146556,0,,,,,,,,,0,106,106,106,,,,,,,,,,,,,,,,,,,,,,,,,,,,,,,,,,,,,,,,916.3750559999608,916.3750559999608,916.3750559999608,916.3750559999608,916.3750559999608,916.3750559999608,916.3750559999608,918.353229100001,918.353229100001,918.353229100001,1,v,0.6267047000583261,919.001472300035,919.508352600038,919.508352600038,919.508352600038,919.508352600038,919.508352600038,919.508352600038,23.438748123555,1,920.5156439000275,,,,,,,,,,,,,,,,,,,,,,,,,,001,2023-02-14_12h13.19.994,CGTriskyDMtask,2022.2.4,59.968972054961114,
,,,,,2,14.5326868469245,0,3.83538110734662,,0.999123802700526,0,,,,,,,,,0,107,107,107,,,,,,,,,,,,,,,,,,,,,,,,,,,,,,,,,,,,,,,,921.5378878000192,921.5378878000192,921.5378878000192,921.5378878000192,921.5378878000192,921.5378878000192,921.5378878000192,923.495145300054,923.495145300054,923.495145300054,2,n,0.5954279000870883,924.1105476999655,,924.6300687000621,924.6300687000621,924.6300687000621,924.6300687000621,924.6300687000621,0,1,925.6245519999648,,,,,,,,,,,,,,,,,,,,,,,,,,001,2023-02-14_12h13.19.994,CGTriskyDMtask,2022.2.4,59.968972054961114,
,,,,,2,11.4882870983682,0,8.33087655623676,,0.527057010734339,1,,,,,,,,,0,108,108,108,,,,,,,,,,,,,,,,,,,,,,,,,,,,,,,,,,,,,,,,926.6434615000617,926.6434615000617,926.6434615000617,926.6434615000617,926.6434615000617,926.6434615000617,926.6434615000617,928.6045661000535,928.6045661000535,928.6045661000535,2,n,1.0087801000336185,929.6351725000422,930.1360252000159,930.1360252000159,930.1360252000159,930.1360252000159,930.1360252000159,930.1360252000159,0,1,931.149705799995,,,,,,,,,,,,,,,,,,,,,,,,,,001,2023-02-14_12h13.19.994,CGTriskyDMtask,2022.2.4,59.968972054961114,
,,,,,1,10.8170400768402,0,9.99568103792844,,0.0046482068976002,0,,,,,,,,,0,109,109,109,,,,,,,,,,,,,,,,,,,,,,,,,,,,,,,,,,,,,,,,932.1632174999686,932.1632174999686,932.1632174999686,932.1632174999686,932.1632174999686,932.1632174999686,932.1632174999686,934.1292019999819,934.1292019999819,934.1292019999819,1,v,0.5491206999868155,934.6942198000615,935.1939782999689,935.1939782999689,935.1939782999689,935.1939782999689,935.1939782999689,935.1939782999689,0,1,936.2084960000357,,,,,,,,,,,,,,,,,,,,,,,,,,001,2023-02-14_12h13.19.994,CGTriskyDMtask,2022.2.4,59.968972054961114,
,,,,,1,2.22934282087954,0,3.65306767561706,,2.04255675184404e-06,0,,,,,,,,,0,110,110,110,,,,,,,,,,,,,,,,,,,,,,,,,,,,,,,,,,,,,,,,937.2078430000693,937.2078430000693,937.2078430000693,937.2078430000693,937.2078430000693,937.2078430000693,937.2078430000693,939.1881692999741,939.1881692999741,939.1881692999741,1,n,0.37861699995119125,939.5868848999962,940.0885718000354,940.0885718000354,940.0885718000354,940.0885718000354,940.0885718000354,940.0885718000354,3.65306767561706,0,941.1011721000541,,,,,,,,,,,,,,,,,,,,,,,,,,001,2023-02-14_12h13.19.994,CGTriskyDMtask,2022.2.4,59.968972054961114,
,,,,,2,12.1168263080413,0,8.87230210840935,,0.485186803160782,1,,,,,,,,,0,111,111,111,,,,,,,,,,,,,,,,,,,,,,,,,,,,,,,,,,,,,,,,942.1016078999965,942.1016078999965,942.1016078999965,942.1016078999965,942.1016078999965,942.1016078999965,942.1016078999965,944.0810144999996,944.0810144999996,944.0810144999996,2,n,0.5145206999732181,944.6130092999665,,945.132837699959,945.132837699959,945.132837699959,945.132837699959,945.132837699959,0,1,946.1270939999959,,,,,,,,,,,,,,,,,,,,,,,,,,001,2023-02-14_12h13.19.994,CGTriskyDMtask,2022.2.4,59.968972054961114,
,,,,,2,14.6324877848267,0,5.21593760012183,,0.998074708789845,0,,,,,,,,,0,112,112,112,,,,,,,,,,,,,,,,,,,,,,,,,,,,,,,,,,,,,,,,947.1261210000375,947.1261210000375,947.1261210000375,947.1261210000375,947.1261210000375,947.1261210000375,947.1261210000375,949.1068842000095,949.1068842000095,949.1068842000095,2,n,0.37736909999512136,949.505438299966,950.0065331000369,950.0065331000369,950.0065331000369,950.0065331000369,950.0065331000369,950.0065331000369,14.6324877848267,1,951.0195457000518,,,,,,,,,,,,,,,,,,,,,,,,,,001,2023-02-14_12h13.19.994,CGTriskyDMtask,2022.2.4,59.968972054961114,
,,,,,1,10.6000198736205,0,7.68788119314704,,0.52642326566566,1,,,,,,,,,0,113,113,113,,,,,,,,,,,,,,,,,,,,,,,,,,,,,,,,,,,,,,,,952.0242778999964,952.0242778999964,952.0242778999964,952.0242778999964,952.0242778999964,952.0242778999964,952.0242778999964,953.9995001000352,953.9995001000352,953.9995001000352,1,v,0.6503600999712944,954.6805142000085,955.2016470000381,955.2016470000381,955.2016470000381,955.2016470000381,955.2016470000381,955.2016470000381,10.6000198736205,1,956.1951417999808,,,,,,,,,,,,,,,,,,,,,,,,,,001,2023-02-14_12h13.19.994,CGTriskyDMtask,2022.2.4,59.968972054961114,
,,,,,1,13.7926147103775,0,10.1002431210247,,0.484807209731925,1,,,,,,,,,0,114,114,114,,,,,,,,,,,,,,,,,,,,,,,,,,,,,,,,,,,,,,,,957.1996763000498,957.1996763000498,957.1996763000498,957.1996763000498,957.1996763000498,957.1996763000498,957.1996763000498,959.1746218999615,959.1746218999615,959.1746218999615,1,v,0.3222838999936357,959.5231454999885,960.0314670000225,960.0314670000225,960.0314670000225,960.0314670000225,960.0314670000225,960.0314670000225,13.7926147103775,1,961.0378163000569,,,,,,,,,,,,,,,,,,,,,,,,,,001,2023-02-14_12h13.19.994,CGTriskyDMtask,2022.2.4,59.968972054961114,
,,,,,1,21.593600469979,0,1.26143356870161,,0.999610214874416,0,,,,,,,,,0,115,115,115,,,,,,,,,,,,,,,,,,,,,,,,,,,,,,,,,,,,,,,,962.0421177999815,962.0421177999815,962.0421177999815,962.0421177999815,962.0421177999815,962.0421177999815,962.0421177999815,964.0177543000318,964.0177543000318,964.0177543000318,1,v,0.6714513000333682,964.7157179999631,965.2154142999789,965.2154142999789,965.2154142999789,965.2154142999789,965.2154142999789,965.2154142999789,0,1,966.229938799981,,,,,,,,,,,,,,,,,,,,,,,,,,001,2023-02-14_12h13.19.994,CGTriskyDMtask,2022.2.4,59.968972054961114,
,,,,,1,17.4880482702865,0,8.30999309751205,,0.991945790134429,0,,,,,,,,,0,116,116,116,,,,,,,,,,,,,,,,,,,,,,,,,,,,,,,,,,,,,,,,967.2290946000721,967.2290946000721,967.2290946000721,967.2290946000721,967.2290946000721,967.2290946000721,967.2290946000721,969.209750900045,969.209750900045,969.209750900045,1,v,0.432715900009498,969.6580011000624,970.1582894000458,970.1582894000458,970.1582894000458,970.1582894000458,970.1582894000458,970.1582894000458,0,1,971.1725558000617,,,,,,,,,,,,,,,,,,,,,,,,,,001,2023-02-14_12h13.19.994,CGTriskyDMtask,2022.2.4,59.968972054961114,
,,,,,1,12.918553998007,0,9.41969407808501,,0.503442723401887,1,,,,,,,,,0,117,117,117,,,,,,,,,,,,,,,,,,,,,,,,,,,,,,,,,,,,,,,,972.1877429999877,972.1877429999877,972.1877429999877,972.1877429999877,972.1877429999877,972.1877429999877,972.1877429999877,974.1523776999675,974.1523776999675,974.1523776999675,1,v,0.4509438000386581,974.6338763000676,975.1387456000084,975.1387456000084,975.1387456000084,975.1387456000084,975.1387456000084,975.1387456000084,12.918553998007,1,976.1483711999608,,,,,,,,,,,,,,,,,,,,,,,,,,001,2023-02-14_12h13.19.994,CGTriskyDMtask,2022.2.4,59.968972054961114,
