riskyGain,riskyLoss,alternative,isi,iti,loc,riskyoption1,riskyoption2,safeoption,ischecktrial,pracTrials.thisRepN,pracTrials.thisTrialN,pracTrials.thisN,pracTrials.thisIndex,staticTrials.thisRepN,staticTrials.thisTrialN,staticTrials.thisN,staticTrials.thisIndex,BestFit.thisRepN,BestFit.thisTrialN,BestFit.thisN,BestFit.thisIndex,initITIstatic,initITIdynamic,CGErdmStartText.started,CGErdmStartResp.started,CGErdmStartResp.keys,CGErdmStartResp.rt,pracStartText.started,pracStartResp.started,pracStartResp.keys,pracStartResp.rt,pracCircleLeft.started,pracCircleRight.started,pracLineLeft.started,pracORtext.started,pracLossText.started,pracGainText.started,pracSafeText.started,pracVLeft.started,pracNRight.started,pracChoiceResp.started,pracChoiceResp.keys,pracChoiceResp.rt,isiPracFix.started,isiPracFix.stopped,pracNoRespText.started,pracRiskOC.started,pracSafeOC.started,pracOCtext.started,pracHideRisk.started,outcome,itiPracFix.started,itiPracFix.stopped,staticStartText.started,staticStartResp.started,staticStartResp.keys,staticStartResp.rt,CircleLeft.started,realCircleRight.started,realLineLeft.started,realORtext.started,realLossText.started,realGainText.started,realSafeText.started,realVLeft.started,realNRight.started,realChoiceResp.started,loc,realChoiceResp.keys,realChoiceResp.rt,isiFix.started,isiFix.stopped,staticNoRespText.started,staticRiskOC.started,staticSafeOC.started,staticOCtext.started,staticHideRisk.started,outcomes,choices,itiFix.started,itiFix.stopped,dynamicChoiceSet.routineStartVal,setupBestFit.started,setupBestFit.stopped,dynamicChoiceSet.routineEndVal,bestRho.routineEndVal,bestMu.routineEndVal,dynamicStartText.started,dynamicStartResp.started,dynamicStartResp.keys,dynamicStartResp.rt,participant,date,expName,psychopyVersion,frameRate,
,,,,,,,,,,,,,,,,,,,,,,"[1.5, 1, 1.5, 1, 1.5, 1, 1, 1, 1, 1.5, 1.5, 1.5, 1.5, 1.5, 1, 1, 1, 1.5, 1, 1.5, 1, 1.5, 1.5, 1, 1.5, 1, 1, 1.5, 1, 1, 1, 1.5, 1, 1, 1.5, 1.5, 1.5, 1.5, 1.5, 1.5, 1, 1.5, 1, 1, 1.5, 1.5, 1, 1.5, 1, 1]","[1, 1.5, 1, 1, 1.5, 1, 1, 1.5, 1.5, 1.5, 1, 1, 1, 1.5, 1.5, 1.5, 1, 1.5, 1.5, 1, 1, 1.5, 1, 1.5, 1, 1, 1, 1.5, 1, 1, 1.5, 1, 1.5, 1.5, 1, 1, 1.5, 1, 1, 1.5, 1.5, 1.5, 1, 1, 1, 1.5, 1, 1.5, 1.5, 1.5, 1, 1.5, 1.5, 1.5, 1.5, 1.5, 1.5, 1.5, 1, 1.5, 1.5, 1, 1, 1, 1, 1, 1, 1.5, 1, 1.5, 1.5, 1, 1.5, 1, 1.5, 1, 1, 1.5, 1, 1, 1.5, 1, 1, 1.5, 1, 1.5, 1, 1, 1.5, 1.5, 1, 1, 1, 1, 1, 1.5, 1.5, 1, 1.5, 1, 1, 1.5, 1.5, 1, 1.5, 1, 1.5, 1.5, 1.5, 1.5, 1.5, 1, 1.5, 1.5, 1.5, 1, 1.5, 1, 1.5, 1]",16.82558229999995,18.818142299998726,return,0.18173800000658957,,,,,,,,,,,,,,,,,,,,,,,,,,,,,,,,,,,,,,,,,,,,,,,,,,,,,,,,,,,,,,,,,999,2023-09-26_22h34.59.321,CGTriskyDMtask,2022.2.1,60.10019905044512,
,,,,,,,,,,,,,,,,,,,,,,,,,,,,19.017655399999057,21.01476659999753,v,0.4485093000039342,,,,,,,,,,,,,,,,,,,,,,,,,,,,,,,,,,,,,,,,,,,,,,,,,,,,,,,,,,,,,999,2023-09-26_22h34.59.321,CGTriskyDMtask,2022.2.1,60.10019905044512,
18.23,0,9.45,2,1,1,,,,,0,0,0,0,,,,,,,,,,,,,,,,,,,21.516042399998696,21.516042399998696,21.516042399998696,21.516042399998696,21.516042399998696,21.516042399998696,21.516042399998696,21.516042399998696,21.516042399998696,21.516042399998696,v,2.366685300003155,25.47454569999536,27.488435200000822,27.488435200000822,27.488435200000822,27.488435200000822,27.488435200000822,27.488435200000822,0,28.503321700001834,31.154810899999575,,,,,,,,,,,,,,,1,,,,,,,,,,,,,,,,,,,,,,,,999,2023-09-26_22h34.59.321,CGTriskyDMtask,2022.2.1,60.10019905044512,
53.27,0,35.16,1,3,1,,,,,0,1,1,1,,,,,,,,,,,,,,,,,,,31.154810899999575,31.154810899999575,31.154810899999575,31.154810899999575,31.154810899999575,31.154810899999575,31.154810899999575,31.154810899999575,31.154810899999575,31.154810899999575,n,2.557465300000331,35.143443100001605,36.16309519999777,36.16309519999777,36.16309519999777,36.16309519999777,36.16309519999777,36.16309519999777,35.16,37.17359159999614,41.617340600001626,,,,,,,,,,,,,,,1,,,,,,,,,,,,,,,,,,,,,,,,999,2023-09-26_22h34.59.321,CGTriskyDMtask,2022.2.1,60.10019905044512,
8.27,0,1.15,1,2,2,,,,,0,2,2,2,,,,,,,,,,,,,,,,,,,41.617340600001626,41.617340600001626,41.617340600001626,41.617340600001626,41.617340600001626,41.617340600001626,41.617340600001626,41.617340600001626,41.617340600001626,41.617340600001626,v,1.0788344999964465,45.61077059999661,46.62615389999701,46.62615389999701,46.62615389999701,46.62615389999701,46.62615389999701,46.62615389999701,1.15,47.64097999999649,52.5678740000003,,,,,,,,,,,,,,,2,,,,,,,,,,,,,,,,,,,,,,,,999,2023-09-26_22h34.59.321,CGTriskyDMtask,2022.2.1,60.10019905044512,
45.88,0,40.41,3,1,1,,,,,0,3,3,3,,,,,,,,,,,,,,,,,,,52.5678740000003,52.5678740000003,52.5678740000003,52.5678740000003,52.5678740000003,52.5678740000003,52.5678740000003,52.5678740000003,52.5678740000003,52.5678740000003,n,0.6961071000041557,56.56110500000068,59.573388999997405,59.573388999997405,59.573388999997405,59.573388999997405,59.573388999997405,59.573388999997405,40.41,60.58838970000215,64.90011209999648,,,,,,,,,,,,,,,1,,,,,,,,,,,,,,,,,,,,,,,,999,2023-09-26_22h34.59.321,CGTriskyDMtask,2022.2.1,60.10019905044512,
21.56,0,11.96,1,1,2,,,,,0,4,4,4,,,,,,,,,,,,,,,,,,,64.90011209999648,64.90011209999648,64.90011209999648,64.90011209999648,64.90011209999648,64.90011209999648,64.90011209999648,64.90011209999648,64.90011209999648,64.90011209999648,None,,68.90910779999831,69.92420449999918,69.92420449999918,69.92420449999918,69.92420449999918,69.92420449999918,69.92420449999918,nan,70.93927959999564,75.24953549999918,,,,,,,,,,,,,,,2,,,,,,,,,,,,,,,,,,,,,,,,999,2023-09-26_22h34.59.321,CGTriskyDMtask,2022.2.1,60.10019905044512,
,,,,,,,,,,,,,,,,,,,,,,,,,,,,,,,,,,,,,,,,,,,,,,,,,,,,,,75.24953549999918,75.24953549999918,v,2.654596500004118,,,,,,,,,,,,,,,,,,,,,,,,,,,,,,,,,,,999,2023-09-26_22h34.59.321,CGTriskyDMtask,2022.2.1,60.10019905044512,
,,,,,2,12.68,0.0,5.66,0,,,,,0,0,0,14,,,,,,,,,,,,,,,,,,,,,,,,,,,,,,,,,,,,,,,,,77.94846379999944,77.94846379999944,77.94846379999944,77.94846379999944,77.94846379999944,77.94846379999944,77.94846379999944,77.94846379999944,77.94846379999944,77.94846379999944,2,v,1.09019580000313,81.92278539999825,82.42216689999623,82.42216689999623,82.42216689999623,82.42216689999623,82.42216689999623,82.42216689999623,5.66,0,83.43705439999758,87.84754819999944,,,,,,,,,,,999,2023-09-26_22h34.59.321,CGTriskyDMtask,2022.2.1,60.10019905044512,
,,,,,1,14.72,0.0,4.64,0,,,,,0,1,1,6,,,,,,,,,,,,,,,,,,,,,,,,,,,,,,,,,,,,,,,,,87.84754819999944,87.84754819999944,87.84754819999944,87.84754819999944,87.84754819999944,87.84754819999944,87.84754819999944,87.84754819999944,87.84754819999944,87.84754819999944,1,n,0.8710693000030005,91.84117179999885,92.34059819999675,92.34059819999675,92.34059819999675,92.34059819999675,92.34059819999675,92.34059819999675,4.64,0,93.35550469999725,97.49973859999591,,,,,,,,,,,999,2023-09-26_22h34.59.321,CGTriskyDMtask,2022.2.1,60.10019905044512,
,,,,,2,10.55,0.0,6.73,0,,,,,0,2,2,32,,,,,,,,,,,,,,,,,,,,,,,,,,,,,,,,,,,,,,,,,97.49973859999591,97.49973859999591,97.49973859999591,97.49973859999591,97.49973859999591,97.49973859999591,97.49973859999591,97.49973859999591,97.49973859999591,97.49973859999591,2,v,0.6750412000037613,101.49332270000014,101.992734499996,101.992734499996,101.992734499996,101.992734499996,101.992734499996,101.992734499996,6.73,0,103.00765429999592,107.8341838999986,,,,,,,,,,,999,2023-09-26_22h34.59.321,CGTriskyDMtask,2022.2.1,60.10019905044512,
,,,,,2,17.94,0.0,9.03,0,,,,,0,3,3,19,,,,,,,,,,,,,,,,,,,,,,,,,,,,,,,,,,,,,,,,,107.8341838999986,107.8341838999986,107.8341838999986,107.8341838999986,107.8341838999986,107.8341838999986,107.8341838999986,107.8341838999986,107.8341838999986,107.8341838999986,2,n,0.660398100000748,111.82779370000208,112.32731760000024,112.32731760000024,112.32731760000024,112.32731760000024,112.32731760000024,112.32731760000024,0.0,1,113.34214000000065,117.68649390000064,,,,,,,,,,,999,2023-09-26_22h34.59.321,CGTriskyDMtask,2022.2.1,60.10019905044512,
,,,,,1,16.26,0.0,9.87,0,,,,,0,4,4,29,,,,,,,,,,,,,,,,,,,,,,,,,,,,,,,,,,,,,,,,,117.68649390000064,117.68649390000064,117.68649390000064,117.68649390000064,117.68649390000064,117.68649390000064,117.68649390000064,117.68649390000064,117.68649390000064,117.68649390000064,1,v,0.59354020000319,121.67941579999751,122.17907829999604,122.17907829999604,122.17907829999604,122.17907829999604,122.17907829999604,122.17907829999604,0.0,1,123.19384269999864,128.1037451000011,,,,,,,,,,,999,2023-09-26_22h34.59.321,CGTriskyDMtask,2022.2.1,60.10019905044512,
,,,,,2,0.0,0.0,10.25,1,,,,,0,5,5,46,,,,,,,,,,,,,,,,,,,,,,,,,,,,,,,,,,,,,,,,,128.1037451000011,128.1037451000011,128.1037451000011,128.1037451000011,128.1037451000011,128.1037451000011,128.1037451000011,128.1037451000011,128.1037451000011,128.1037451000011,2,n,0.5121542000051704,132.0971428999983,132.59679589999723,132.59679589999723,132.59679589999723,132.59679589999723,132.59679589999723,132.59679589999723,0.0,1,133.6113905999955,138.10510929999873,,,,,,,,,,,999,2023-09-26_22h34.59.321,CGTriskyDMtask,2022.2.1,60.10019905044512,
,,,,,2,10.12,0.0,6.94,0,,,,,0,6,6,38,,,,,,,,,,,,,,,,,,,,,,,,,,,,,,,,,,,,,,,,,138.10510929999873,138.10510929999873,138.10510929999873,138.10510929999873,138.10510929999873,138.10510929999873,138.10510929999873,138.10510929999873,138.10510929999873,138.10510929999873,2,v,0.5984019000025,142.09872180000093,142.59819260000222,142.59819260000222,142.59819260000222,142.59819260000222,142.59819260000222,142.59819260000222,6.94,0,143.6130753999969,148.02494889999798,,,,,,,,,,,999,2023-09-26_22h34.59.321,CGTriskyDMtask,2022.2.1,60.10019905044512,
,,,,,1,19.86,0.0,8.07,0,,,,,0,7,7,11,,,,,,,,,,,,,,,,,,,,,,,,,,,,,,,,,,,,,,,,,148.02494889999798,148.02494889999798,148.02494889999798,148.02494889999798,148.02494889999798,148.02494889999798,148.02494889999798,148.02494889999798,148.02494889999798,148.02494889999798,1,n,0.6389995000063209,152.01705679999577,152.51661259999673,152.51661259999673,152.51661259999673,152.51661259999673,152.51661259999673,152.51661259999673,8.07,0,153.53145640000002,157.8937758999964,,,,,,,,,,,999,2023-09-26_22h34.59.321,CGTriskyDMtask,2022.2.1,60.10019905044512,
,,,,,1,22.97,0.0,6.51,0,,,,,0,8,8,5,,,,,,,,,,,,,,,,,,,,,,,,,,,,,,,,,,,,,,,,,157.8937758999964,157.8937758999964,157.8937758999964,157.8937758999964,157.8937758999964,157.8937758999964,157.8937758999964,157.8937758999964,157.8937758999964,157.8937758999964,1,v,0.6409484000032535,161.88553809999576,162.3851485999985,162.3851485999985,162.3851485999985,162.3851485999985,162.3851485999985,162.3851485999985,22.97,1,163.39985660000093,167.76073460000043,,,,,,,,,,,999,2023-09-26_22h34.59.321,CGTriskyDMtask,2022.2.1,60.10019905044512,
,,,,,2,11.2,0.0,6.4,0,,,,,0,9,9,26,,,,,,,,,,,,,,,,,,,,,,,,,,,,,,,,,,,,,,,,,167.76073460000043,167.76073460000043,167.76073460000043,167.76073460000043,167.76073460000043,167.76073460000043,167.76073460000043,167.76073460000043,167.76073460000043,167.76073460000043,2,n,0.34267820000241045,171.7540439000004,172.25352959999873,172.25352959999873,172.25352959999873,172.25352959999873,172.25352959999873,172.25352959999873,0.0,1,173.2684059000021,178.42761410000094,,,,,,,,,,,999,2023-09-26_22h34.59.321,CGTriskyDMtask,2022.2.1,60.10019905044512,
,,,,,2,13.94,0.0,5.03,0,,,,,0,10,10,8,,,,,,,,,,,,,,,,,,,,,,,,,,,,,,,,,,,,,,,,,178.42761410000094,178.42761410000094,178.42761410000094,178.42761410000094,178.42761410000094,178.42761410000094,178.42761410000094,178.42761410000094,178.42761410000094,178.42761410000094,2,v,0.5715468000053079,182.4212688999978,182.9206916999974,182.9206916999974,182.9206916999974,182.9206916999974,182.9206916999974,182.9206916999974,5.03,0,183.93561000000045,188.8787220000013,,,,,,,,,,,999,2023-09-26_22h34.59.321,CGTriskyDMtask,2022.2.1,60.10019905044512,
,,,,,1,15.96,0.0,10.02,0,,,,,0,11,11,31,,,,,,,,,,,,,,,,,,,,,,,,,,,,,,,,,,,,,,,,,188.8787220000013,188.8787220000013,188.8787220000013,188.8787220000013,188.8787220000013,188.8787220000013,188.8787220000013,188.8787220000013,188.8787220000013,188.8787220000013,1,v,0.59326850000798,192.87222889999975,193.3718779999981,193.3718779999981,193.3718779999981,193.3718779999981,193.3718779999981,193.3718779999981,0.0,1,194.38667839999835,199.29625529999612,,,,,,,,,,,999,2023-09-26_22h34.59.321,CGTriskyDMtask,2022.2.1,60.10019905044512,
,,,,,1,10.68,0.0,10.68,1,,,,,0,12,12,48,,,,,,,,,,,,,,,,,,,,,,,,,,,,,,,,,,,,,,,,,199.29625529999612,199.29625529999612,199.29625529999612,199.29625529999612,199.29625529999612,199.29625529999612,199.29625529999612,199.29625529999612,199.29625529999612,199.29625529999612,1,v,0.521395300005679,203.28979499999696,203.78943810000055,203.78943810000055,203.78943810000055,203.78943810000055,203.78943810000055,203.78943810000055,0.0,1,204.80429229999572,209.79733029999625,,,,,,,,,,,999,2023-09-26_22h34.59.321,CGTriskyDMtask,2022.2.1,60.10019905044512,
,,,,,2,14.26,0.0,0.0,1,,,,,0,13,13,41,,,,,,,,,,,,,,,,,,,,,,,,,,,,,,,,,,,,,,,,,209.79733029999625,209.79733029999625,209.79733029999625,209.79733029999625,209.79733029999625,209.79733029999625,209.79733029999625,209.79733029999625,209.79733029999625,209.79733029999625,2,v,0.36244019999867305,213.79061340000044,214.29008359999716,214.29008359999716,214.29008359999716,214.29008359999716,214.29008359999716,214.29008359999716,0.0,0,215.30498459999944,220.4477762000024,,,,,,,,,,,999,2023-09-26_22h34.59.321,CGTriskyDMtask,2022.2.1,60.10019905044512,
,,,,,1,10.73,0.0,6.63,0,,,,,0,14,14,30,,,,,,,,,,,,,,,,,,,,,,,,,,,,,,,,,,,,,,,,,220.4477762000024,220.4477762000024,220.4477762000024,220.4477762000024,220.4477762000024,220.4477762000024,220.4477762000024,220.4477762000024,220.4477762000024,220.4477762000024,1,None,,224.45789389999845,,224.9572530000005,224.9572530000005,224.9572530000005,224.9572530000005,224.9572530000005,nan,nan,225.95557819999522,230.60031329999765,,,,,,,,,,,999,2023-09-26_22h34.59.321,CGTriskyDMtask,2022.2.1,60.10019905044512,
,,,,,2,20.03,0.0,1.99,0,,,,,0,15,15,0,,,,,,,,,,,,,,,,,,,,,,,,,,,,,,,,,,,,,,,,,230.60031329999765,230.60031329999765,230.60031329999765,230.60031329999765,230.60031329999765,230.60031329999765,230.60031329999765,230.60031329999765,230.60031329999765,230.60031329999765,2,None,,234.60924140000134,,235.1085368999993,235.1085368999993,235.1085368999993,235.1085368999993,235.1085368999993,nan,nan,236.10692310000013,240.75163669999893,,,,,,,,,,,999,2023-09-26_22h34.59.321,CGTriskyDMtask,2022.2.1,60.10019905044512,
,,,,,2,19.86,0.0,0.0,1,,,,,0,16,16,42,,,,,,,,,,,,,,,,,,,,,,,,,,,,,,,,,,,,,,,,,240.75163669999893,240.75163669999893,240.75163669999893,240.75163669999893,240.75163669999893,240.75163669999893,240.75163669999893,240.75163669999893,240.75163669999893,240.75163669999893,2,None,,244.7607594000001,,245.2599001999988,245.2599001999988,245.2599001999988,245.2599001999988,245.2599001999988,nan,nan,246.25831879999896,250.90177140000014,,,,,,,,,,,999,2023-09-26_22h34.59.321,CGTriskyDMtask,2022.2.1,60.10019905044512,
,,,,,1,17.0,0.0,9.5,0,,,,,0,17,17,25,,,,,,,,,,,,,,,,,,,,,,,,,,,,,,,,,,,,,,,,,250.90177140000014,250.90177140000014,250.90177140000014,250.90177140000014,250.90177140000014,250.90177140000014,250.90177140000014,250.90177140000014,250.90177140000014,250.90177140000014,1,n,1.2575328000020818,254.8952231000003,255.39479510000092,255.39479510000092,255.39479510000092,255.39479510000092,255.39479510000092,255.39479510000092,9.5,0,256.4097432999988,260.65555189999577,,,,,,,,,,,999,2023-09-26_22h34.59.321,CGTriskyDMtask,2022.2.1,60.10019905044512,
,,,,,2,16.11,6.99,6.99,1,,,,,0,18,18,43,,,,,,,,,,,,,,,,,,,,,,,,,,,,,,,,,,,,,,,,,260.65555189999577,260.65555189999577,260.65555189999577,260.65555189999577,260.65555189999577,260.65555189999577,260.65555189999577,260.65555189999577,260.65555189999577,260.65555189999577,2,n,3.4237410000059754,264.64746639999794,265.14684670000133,265.14684670000133,265.14684670000133,265.14684670000133,265.14684670000133,265.14684670000133,6.99,1,266.161608800001,267.74463190000097,,,,,,,,,,,999,2023-09-26_22h34.59.321,CGTriskyDMtask,2022.2.1,60.10019905044512,
,,,,,2,18.33,0.0,8.84,0,,,,,0,19,19,17,,,,,,,,,,,,,,,,,,,,,,,,,,,,,,,,,,,,,,,,,267.74463190000097,267.74463190000097,267.74463190000097,267.74463190000097,267.74463190000097,267.74463190000097,267.74463190000097,267.74463190000097,267.74463190000097,267.74463190000097,2,v,0.8547293000010541,271.7366387000002,272.2361204999979,272.2361204999979,272.2361204999979,272.2361204999979,272.2361204999979,272.2361204999979,8.84,0,273.25094309999986,277.91216559999884,,,,,,,,,,,999,2023-09-26_22h34.59.321,CGTriskyDMtask,2022.2.1,60.10019905044512,
,,,,,1,11.43,0.0,6.29,0,,,,,0,20,20,24,,,,,,,,,,,,,,,,,,,,,,,,,,,,,,,,,,,,,,,,,277.91216559999884,277.91216559999884,277.91216559999884,277.91216559999884,277.91216559999884,277.91216559999884,277.91216559999884,277.91216559999884,277.91216559999884,277.91216559999884,1,n,0.8386205000060727,281.90456540000014,282.4039915999965,282.4039915999965,282.4039915999965,282.4039915999965,282.4039915999965,282.4039915999965,6.29,0,283.4188546000005,287.5801885999972,,,,,,,,,,,999,2023-09-26_22h34.59.321,CGTriskyDMtask,2022.2.1,60.10019905044512,
,,,,,2,17.59,0.0,9.2,0,,,,,0,21,21,21,,,,,,,,,,,,,,,,,,,,,,,,,,,,,,,,,,,,,,,,,287.5801885999972,287.5801885999972,287.5801885999972,287.5801885999972,287.5801885999972,287.5801885999972,287.5801885999972,287.5801885999972,287.5801885999972,287.5801885999972,2,v,0.6114364000022761,291.5733340000006,292.0728670999961,292.0728670999961,292.0728670999961,292.0728670999961,292.0728670999961,292.0728670999961,9.2,0,293.0877552999955,297.9807193000015,,,,,,,,,,,999,2023-09-26_22h34.59.321,CGTriskyDMtask,2022.2.1,60.10019905044512,
,,,,,2,15.47,0.0,10.27,0,,,,,0,22,22,35,,,,,,,,,,,,,,,,,,,,,,,,,,,,,,,,,,,,,,,,,297.9807193000015,297.9807193000015,297.9807193000015,297.9807193000015,297.9807193000015,297.9807193000015,297.9807193000015,297.9807193000015,297.9807193000015,297.9807193000015,2,n,0.5632522000014433,301.97442240000237,302.4739136999997,302.4739136999997,302.4739136999997,302.4739136999997,302.4739136999997,302.4739136999997,0.0,1,303.4887342000002,308.4317770999987,,,,,,,,,,,999,2023-09-26_22h34.59.321,CGTriskyDMtask,2022.2.1,60.10019905044512,
,,,,,2,12.36,0.0,5.82,0,,,,,0,23,23,16,,,,,,,,,,,,,,,,,,,,,,,,,,,,,,,,,,,,,,,,,308.4317770999987,308.4317770999987,308.4317770999987,308.4317770999987,308.4317770999987,308.4317770999987,308.4317770999987,308.4317770999987,308.4317770999987,308.4317770999987,2,v,0.49613350000436185,312.4252866999959,312.9248337999961,312.9248337999961,312.9248337999961,312.9248337999961,312.9248337999961,312.9248337999961,5.82,0,313.93954120000126,318.44998849999683,,,,,,,,,,,999,2023-09-26_22h34.59.321,CGTriskyDMtask,2022.2.1,60.10019905044512,
,,,,,1,0.0,0.0,7.55,1,,,,,0,24,24,45,,,,,,,,,,,,,,,,,,,,,,,,,,,,,,,,,,,,,,,,,318.44998849999683,318.44998849999683,318.44998849999683,318.44998849999683,318.44998849999683,318.44998849999683,318.44998849999683,318.44998849999683,318.44998849999683,318.44998849999683,1,v,0.4215230999980122,322.4434534999964,322.94309749999957,322.94309749999957,322.94309749999957,322.94309749999957,322.94309749999957,322.94309749999957,0.0,1,323.9578515999965,329.05080389999785,,,,,,,,,,,999,2023-09-26_22h34.59.321,CGTriskyDMtask,2022.2.1,60.10019905044512,
,,,,,1,0.0,0.0,3.13,1,,,,,0,25,25,47,,,,,,,,,,,,,,,,,,,,,,,,,,,,,,,,,,,,,,,,,329.05080389999785,329.05080389999785,329.05080389999785,329.05080389999785,329.05080389999785,329.05080389999785,329.05080389999785,329.05080389999785,329.05080389999785,329.05080389999785,1,n,0.3967101000016555,333.0440873999978,333.5435414999956,333.5435414999956,333.5435414999956,333.5435414999956,333.5435414999956,333.5435414999956,3.13,0,334.55847379999614,339.1686821999974,,,,,,,,,,,999,2023-09-26_22h34.59.321,CGTriskyDMtask,2022.2.1,60.10019905044512,
,,,,,1,21.32,0.0,7.34,0,,,,,0,26,26,7,,,,,,,,,,,,,,,,,,,,,,,,,,,,,,,,,,,,,,,,,339.1686821999974,339.1686821999974,339.1686821999974,339.1686821999974,339.1686821999974,339.1686821999974,339.1686821999974,339.1686821999974,339.1686821999974,339.1686821999974,1,v,0.48831500000233063,343.16237980000005,343.6618868000005,343.6618868000005,343.6618868000005,343.6618868000005,343.6618868000005,343.6618868000005,21.32,1,344.6766929000005,349.21005349999905,,,,,,,,,,,999,2023-09-26_22h34.59.321,CGTriskyDMtask,2022.2.1,60.10019905044512,
,,,,,2,13.45,0.0,5.27,0,,,,,0,27,27,10,,,,,,,,,,,,,,,,,,,,,,,,,,,,,,,,,,,,,,,,,349.21005349999905,349.21005349999905,349.21005349999905,349.21005349999905,349.21005349999905,349.21005349999905,349.21005349999905,349.21005349999905,349.21005349999905,349.21005349999905,2,n,1.1163617000056547,353.1972328999982,353.69674549999763,353.69674549999763,353.69674549999763,353.69674549999763,353.69674549999763,353.69674549999763,0.0,1,354.7115305999978,359.10518310000043,,,,,,,,,,,999,2023-09-26_22h34.59.321,CGTriskyDMtask,2022.2.1,60.10019905044512,
,,,,,2,11.84,0.0,6.08,0,,,,,0,28,28,20,,,,,,,,,,,,,,,,,,,,,,,,,,,,,,,,,,,,,,,,,359.10518310000043,359.10518310000043,359.10518310000043,359.10518310000043,359.10518310000043,359.10518310000043,359.10518310000043,359.10518310000043,359.10518310000043,359.10518310000043,2,None,,363.1154370000004,,363.6147933999964,363.6147933999964,363.6147933999964,363.6147933999964,363.6147933999964,nan,nan,364.61327639999945,368.5078674999968,,,,,,,,,,,999,2023-09-26_22h34.59.321,CGTriskyDMtask,2022.2.1,60.10019905044512,
,,,,,2,6.79,0.0,9.92,1,,,,,0,29,29,49,,,,,,,,,,,,,,,,,,,,,,,,,,,,,,,,,,,,,,,,,368.5078674999968,368.5078674999968,368.5078674999968,368.5078674999968,368.5078674999968,368.5078674999968,368.5078674999968,368.5078674999968,368.5078674999968,368.5078674999968,2,v,0.9080722000071546,372.5014592000007,373.00090069999715,373.00090069999715,373.00090069999715,373.00090069999715,373.00090069999715,373.00090069999715,9.92,0,374.01563539999916,378.1099617,,,,,,,,,,,999,2023-09-26_22h34.59.321,CGTriskyDMtask,2022.2.1,60.10019905044512,
,,,,,1,15.09,0.0,10.46,0,,,,,0,30,30,39,,,,,,,,,,,,,,,,,,,,,,,,,,,,,,,,,,,,,,,,,378.1099617,378.1099617,378.1099617,378.1099617,378.1099617,378.1099617,378.1099617,378.1099617,378.1099617,378.1099617,1,n,0.4334801000004518,382.10347139999794,382.6029918999993,382.6029918999993,382.6029918999993,382.6029918999993,382.6029918999993,382.6029918999993,10.46,0,383.6178742999982,388.1976768999957,,,,,,,,,,,999,2023-09-26_22h34.59.321,CGTriskyDMtask,2022.2.1,60.10019905044512,
,,,,,1,25.2,0.0,5.4,0,,,,,0,31,31,3,,,,,,,,,,,,,,,,,,,,,,,,,,,,,,,,,,,,,,,,,388.1976768999957,388.1976768999957,388.1976768999957,388.1976768999957,388.1976768999957,388.1976768999957,388.1976768999957,388.1976768999957,388.1976768999957,388.1976768999957,1,v,0.5453909000061685,392.18826360000094,392.68788060000225,392.68788060000225,392.68788060000225,392.68788060000225,392.68788060000225,392.68788060000225,25.2,1,393.70267140000215,398.66264679999585,,,,,,,,,,,999,2023-09-26_22h34.59.321,CGTriskyDMtask,2022.2.1,60.10019905044512,
,,,,,2,15.7,0.0,10.15,0,,,,,0,32,32,33,,,,,,,,,,,,,,,,,,,,,,,,,,,,,,,,,,,,,,,,,398.66264679999585,398.66264679999585,398.66264679999585,398.66264679999585,398.66264679999585,398.66264679999585,398.66264679999585,398.66264679999585,398.66264679999585,398.66264679999585,2,n,0.44040550000499934,402.65577479999774,403.15545949999796,403.15545949999796,403.15545949999796,403.15545949999796,403.15545949999796,403.15545949999796,0.0,1,404.17017620000115,408.7305529000005,,,,,,,,,,,999,2023-09-26_22h34.59.321,CGTriskyDMtask,2022.2.1,60.10019905044512,
,,,,,1,19.28,0.0,8.36,0,,,,,0,33,33,13,,,,,,,,,,,,,,,,,,,,,,,,,,,,,,,,,,,,,,,,,408.7305529000005,408.7305529000005,408.7305529000005,408.7305529000005,408.7305529000005,408.7305529000005,408.7305529000005,408.7305529000005,408.7305529000005,408.7305529000005,1,v,0.504710300003353,412.7240509999974,413.2237365999972,413.2237365999972,413.2237365999972,413.2237365999972,413.2237365999972,413.2237365999972,0.0,1,414.23841659999744,418.7512817999959,,,,,,,,,,,999,2023-09-26_22h34.59.321,CGTriskyDMtask,2022.2.1,60.10019905044512,
,,,,,1,16.0,0.0,4.0,0,,,,,0,34,34,4,,,,,,,,,,,,,,,,,,,,,,,,,,,,,,,,,,,,,,,,,418.7512817999959,418.7512817999959,418.7512817999959,418.7512817999959,418.7512817999959,418.7512817999959,418.7512817999959,418.7512817999959,418.7512817999959,418.7512817999959,1,n,0.45643720000225585,422.74226729999646,423.2417303999973,423.2417303999973,423.2417303999973,423.2417303999973,423.2417303999973,423.2417303999973,4.0,0,424.2565906999953,429.3162905999998,,,,,,,,,,,999,2023-09-26_22h34.59.321,CGTriskyDMtask,2022.2.1,60.10019905044512,
,,,,,2,17.73,0.0,3.13,0,,,,,0,35,35,2,,,,,,,,,,,,,,,,,,,,,,,,,,,,,,,,,,,,,,,,,429.3162905999998,429.3162905999998,429.3162905999998,429.3162905999998,429.3162905999998,429.3162905999998,429.3162905999998,429.3162905999998,429.3162905999998,429.3162905999998,2,None,,433.3263034999982,,433.8255728000004,433.8255728000004,433.8255728000004,433.8255728000004,433.8255728000004,nan,nan,434.82395720000204,439.8835188000012,,,,,,,,,,,999,2023-09-26_22h34.59.321,CGTriskyDMtask,2022.2.1,60.10019905044512,
,,,,,1,28.21,0.0,3.89,0,,,,,0,36,36,1,,,,,,,,,,,,,,,,,,,,,,,,,,,,,,,,,,,,,,,,,439.8835188000012,439.8835188000012,439.8835188000012,439.8835188000012,439.8835188000012,439.8835188000012,439.8835188000012,439.8835188000012,439.8835188000012,439.8835188000012,1,None,,443.8937150999991,,444.3930685000014,444.3930685000014,444.3930685000014,444.3930685000014,444.3930685000014,nan,nan,445.3915139000019,450.4518285000013,,,,,,,,,,,999,2023-09-26_22h34.59.321,CGTriskyDMtask,2022.2.1,60.10019905044512,
,,,,,1,16.6,0.0,9.7,0,,,,,0,37,37,27,,,,,,,,,,,,,,,,,,,,,,,,,,,,,,,,,,,,,,,,,450.4518285000013,450.4518285000013,450.4518285000013,450.4518285000013,450.4518285000013,450.4518285000013,450.4518285000013,450.4518285000013,450.4518285000013,450.4518285000013,1,None,,454.4610621999964,,454.96030520000204,454.96030520000204,454.96030520000204,454.96030520000204,454.96030520000204,nan,nan,455.95873030000075,461.0184938999955,,,,,,,,,,,999,2023-09-26_22h34.59.321,CGTriskyDMtask,2022.2.1,60.10019905044512,
,,,,,2,13.04,0.0,5.48,0,,,,,0,38,38,12,,,,,,,,,,,,,,,,,,,,,,,,,,,,,,,,,,,,,,,,,461.0184938999955,461.0184938999955,461.0184938999955,461.0184938999955,461.0184938999955,461.0184938999955,461.0184938999955,461.0184938999955,461.0184938999955,461.0184938999955,2,None,,465.0285517000011,,465.52773879999586,465.52773879999586,465.52773879999586,465.52773879999586,465.52773879999586,nan,nan,466.52620169999864,471.5856205999953,,,,,,,,,,,999,2023-09-26_22h34.59.321,CGTriskyDMtask,2022.2.1,60.10019905044512,
,,,,,2,12.08,0.0,5.96,0,,,,,0,39,39,18,,,,,,,,,,,,,,,,,,,,,,,,,,,,,,,,,,,,,,,,,471.5856205999953,471.5856205999953,471.5856205999953,471.5856205999953,471.5856205999953,471.5856205999953,471.5856205999953,471.5856205999953,471.5856205999953,471.5856205999953,2,None,,475.59587289999763,,476.09518129999924,476.09518129999924,476.09518129999924,476.09518129999924,476.09518129999924,nan,nan,477.0936812,482.1530874000018,,,,,,,,,,,999,2023-09-26_22h34.59.321,CGTriskyDMtask,2022.2.1,60.10019905044512,
,,,,,1,11.62,0.0,6.19,0,,,,,0,40,40,22,,,,,,,,,,,,,,,,,,,,,,,,,,,,,,,,,,,,,,,,,482.1530874000018,482.1530874000018,482.1530874000018,482.1530874000018,482.1530874000018,482.1530874000018,482.1530874000018,482.1530874000018,482.1530874000018,482.1530874000018,1,None,,486.16326979999576,,486.66262070000084,486.66262070000084,486.66262070000084,486.66262070000084,486.66262070000084,nan,nan,487.66103699999803,492.2059936000005,,,,,,,,,,,999,2023-09-26_22h34.59.321,CGTriskyDMtask,2022.2.1,60.10019905044512,
,,,,,1,18.77,0.0,8.61,0,,,,,0,41,41,15,,,,,,,,,,,,,,,,,,,,,,,,,,,,,,,,,,,,,,,,,492.2059936000005,492.2059936000005,492.2059936000005,492.2059936000005,492.2059936000005,492.2059936000005,492.2059936000005,492.2059936000005,492.2059936000005,492.2059936000005,1,None,,496.2147097999987,,496.71411159999843,496.71411159999843,496.71411159999843,496.71411159999843,496.71411159999843,nan,nan,497.7125251999969,502.7719882999954,,,,,,,,,,,999,2023-09-26_22h34.59.321,CGTriskyDMtask,2022.2.1,60.10019905044512,
,,,,,1,10.95,0.0,6.53,0,,,,,0,42,42,28,,,,,,,,,,,,,,,,,,,,,,,,,,,,,,,,,,,,,,,,,502.7719882999954,502.7719882999954,502.7719882999954,502.7719882999954,502.7719882999954,502.7719882999954,502.7719882999954,502.7719882999954,502.7719882999954,502.7719882999954,1,None,,506.78216729999986,,507.28142780000053,507.28142780000053,507.28142780000053,507.28142780000053,507.28142780000053,nan,nan,508.27990950000094,512.8241462000005,,,,,,,,,,,999,2023-09-26_22h34.59.321,CGTriskyDMtask,2022.2.1,60.10019905044512,
,,,,,2,17.28,0.0,9.36,0,,,,,0,43,43,23,,,,,,,,,,,,,,,,,,,,,,,,,,,,,,,,,,,,,,,,,512.8241462000005,512.8241462000005,512.8241462000005,512.8241462000005,512.8241462000005,512.8241462000005,512.8241462000005,512.8241462000005,512.8241462000005,512.8241462000005,2,None,,516.8338201000006,,517.3330115999997,517.3330115999997,517.3330115999997,517.3330115999997,517.3330115999997,nan,nan,518.3313398999962,522.8759674999965,,,,,,,,,,,999,2023-09-26_22h34.59.321,CGTriskyDMtask,2022.2.1,60.10019905044512,
,,,,,2,20.53,0.0,7.73,0,,,,,0,44,44,9,,,,,,,,,,,,,,,,,,,,,,,,,,,,,,,,,,,,,,,,,522.8759674999965,522.8759674999965,522.8759674999965,522.8759674999965,522.8759674999965,522.8759674999965,522.8759674999965,522.8759674999965,522.8759674999965,522.8759674999965,2,None,,526.8852198000022,,527.3845812,527.3845812,527.3845812,527.3845812,527.3845812,nan,nan,528.383035699997,533.4427833000009,,,,,,,,,,,999,2023-09-26_22h34.59.321,CGTriskyDMtask,2022.2.1,60.10019905044512,
,,,,,2,10.24,0.0,6.88,0,,,,,0,45,45,36,,,,,,,,,,,,,,,,,,,,,,,,,,,,,,,,,,,,,,,,,533.4427833000009,533.4427833000009,533.4427833000009,533.4427833000009,533.4427833000009,533.4427833000009,533.4427833000009,533.4427833000009,533.4427833000009,533.4427833000009,2,None,,537.4525936999999,,537.9519244999974,537.9519244999974,537.9519244999974,537.9519244999974,537.9519244999974,nan,nan,538.9503390999962,544.0099807000006,,,,,,,,,,,999,2023-09-26_22h34.59.321,CGTriskyDMtask,2022.2.1,60.10019905044512,
,,,,,1,13.1,7.73,4.68,1,,,,,0,46,46,44,,,,,,,,,,,,,,,,,,,,,,,,,,,,,,,,,,,,,,,,,544.0099807000006,544.0099807000006,544.0099807000006,544.0099807000006,544.0099807000006,544.0099807000006,544.0099807000006,544.0099807000006,544.0099807000006,544.0099807000006,1,None,,548.020035900001,,548.5194358000008,548.5194358000008,548.5194358000008,548.5194358000008,548.5194358000008,nan,nan,549.5176343999992,554.0700540999969,,,,,,,,,,,999,2023-09-26_22h34.59.321,CGTriskyDMtask,2022.2.1,60.10019905044512,
,,,,,1,15.27,0.0,10.37,0,,,,,0,47,47,37,,,,,,,,,,,,,,,,,,,,,,,,,,,,,,,,,,,,,,,,,554.0700540999969,554.0700540999969,554.0700540999969,554.0700540999969,554.0700540999969,554.0700540999969,554.0700540999969,554.0700540999969,554.0700540999969,554.0700540999969,1,None,,558.0716208000013,,558.5708717000016,558.5708717000016,558.5708717000016,558.5708717000016,558.5708717000016,nan,nan,559.5692108000003,564.6288022000008,,,,,,,,,,,999,2023-09-26_22h34.59.321,CGTriskyDMtask,2022.2.1,60.10019905044512,
,,,,,1,10.35,0.0,0.0,1,,,,,0,48,48,40,,,,,,,,,,,,,,,,,,,,,,,,,,,,,,,,,,,,,,,,,564.6288022000008,564.6288022000008,564.6288022000008,564.6288022000008,564.6288022000008,564.6288022000008,564.6288022000008,564.6288022000008,564.6288022000008,564.6288022000008,1,None,,568.639044399999,,569.1382422000024,569.1382422000024,569.1382422000024,569.1382422000024,569.1382422000024,nan,nan,570.1366748,574.6807217999958,,,,,,,,,,,999,2023-09-26_22h34.59.321,CGTriskyDMtask,2022.2.1,60.10019905044512,
,,,,,1,10.39,0.0,6.81,0,,,,,0,49,49,34,,,,,,,,,,,,,,,,,,,,,,,,,,,,,,,,,,,,,,,,,574.6807217999958,574.6807217999958,574.6807217999958,574.6807217999958,574.6807217999958,574.6807217999958,574.6807217999958,574.6807217999958,574.6807217999958,574.6807217999958,1,None,,578.6904112999982,,579.189749899997,579.189749899997,579.189749899997,579.189749899997,579.189749899997,nan,nan,580.1882736999978,586.3312313999995,,,,,,,,,,,999,2023-09-26_22h34.59.321,CGTriskyDMtask,2022.2.1,60.10019905044512,
,,,,,,,,,,,,,,,,,,0,0,0,0,,,,,,,,,,,,,,,,,,,,,,,,,,,,,,,,,,,,,,,,,,,,,,,,,,,,,,,,,,,,,../cgt_gamblingSpanTasks/bespoke_choicesets/bespoke_choiceset_rhoInd200_muInd001.csv,586.3312313999995,590.3397112999955,../cgt_gamblingSpanTasks/bespoke_choicesets/bespoke_choiceset_rhoInd200_muInd001.csv,200,1,,,,,999,2023-09-26_22h34.59.321,CGTriskyDMtask,2022.2.1,60.10019905044512,
,,,,,,,,,,,,,,,,,,,,,,,,,,,,,,,,,,,,,,,,,,,,,,,,,,,,,,,,,,,,,,,,,,,,,,,,,,,,,,,,,,,,,,,,590.3397112999955,590.3397112999955,v,7.066724800009979,999,2023-09-26_22h34.59.321,CGTriskyDMtask,2022.2.1,60.10019905044512,
